onset	duration	face	response	response_time	trial_type
1.0174	2.5	stimuli/Faces/JWfemale68-2neutral.bmp		1.0606	Subsequent_Miss
4.3872	2.5	stimuli/Faces/JWfemale42neutral.bmp		1.4207	Subsequent_Miss
7.9896	2.5	stimuli/Faces/EMBfemale21-3neutral.bmp		0.8462	Subsequent_Hit
11.4915	2.5	stimuli/Faces/TMWmale37-2neutral.bmp		1.0703	Subsequent_Miss
14.8111	2.5	stimuli/Faces/EMBfemale22-2neutral.bmp		1.0688	Subsequent_Miss
17.9644	2.5	stimuli/Faces/JWfemale70-4neutral.bmp		1.0047	Subsequent_Miss
21.2155	2.5	stimuli/Faces/TMWfemale36neutral.bmp		1.2442	Subsequent_Hit
25.1855	2.5	stimuli/Faces/JWmale79neutral.bmp		0.8754	Subsequent_Hit
28.3705	2.5	stimuli/Faces/EMBfemale26neutral.bmp		1.4163	Subsequent_Miss
31.4391	2.5	stimuli/Faces/EMIfemale19neutral.bmp		0.9716	Subsequent_Hit
35.1923	2.5	stimuli/Faces/TSFWmale69neutral.bmp		0.9125	Subsequent_Miss
38.7950	2.5	stimuli/Faces/EMImale23-4neutral.bmp		0.9407	Subsequent_Miss
42.4824	2.5	stimuli/Faces/TSFWmale87neutral.bmp		0.8685	Subsequent_Miss
46.1834	2.5	stimuli/Faces/TSFHmale65neutral.bmp		1.0090	Subsequent_Miss
49.2022	2.5	stimuli/Faces/JWfemale86-2neutral.bmp		1.3335	Subsequent_Miss
52.3211	2.5	stimuli/Faces/JWfemale50neutral.bmp		1.1579	Subsequent_Miss
56.1733	2.5	stimuli/Faces/TSFWmale88neutral.bmp		1.2465	Subsequent_Hit
59.3433	2.5	stimuli/Faces/EMImale25-2neutral.bmp		0.8884	Subsequent_Hit
63.3132	2.5	stimuli/Faces/JWfemale77neutral.bmp		0.8856	Subsequent_Miss
66.7650	2.5	stimuli/Faces/JWfemale76-3neutral.bmp		1.3620	Subsequent_Miss
69.8337	2.5	stimuli/Faces/EMWfemale20-2neutral.bmp		0.8059	Subsequent_Hit
73.5696	2.5	stimuli/Faces/TSFBfemale63-2neutral.bmp		0.9051	Subsequent_Hit
76.7222	2.5	stimuli/Faces/JWfemale65-6neutral.bmp		0.8976	Subsequent_Miss
80.6580	2.5	stimuli/Faces/EMWfemale21-3neutral.bmp		0.8745	Subsequent_Miss
83.9772	2.5	stimuli/Faces/JWfemale81-3neutral.bmp		0.5408	Subsequent_Miss
87.6808	2.5	stimuli/Faces/TSFWmale74neutral.bmp		0.6901	Subsequent_Hit
91.0154	2.5	stimuli/Faces/EMIfemale25-2neutral.bmp		0.7718	Subsequent_Miss
94.4348	2.5	stimuli/Faces/JWfemale65-2neutral.bmp		0.9828	Subsequent_Hit
97.8555	2.5	stimuli/Faces/JWfemale78-3neutral.bmp		1.0453	Subsequent_Hit
101.2069	2.5	stimuli/Faces/Wmale_65.bmp		1.0082	Subsequent_Miss
105.0595	2.5	stimuli/Faces/EMBfemale20neutral.bmp		0.7764	Subsequent_Miss
108.1279	2.5	stimuli/Faces/TSFHfemale64neutral.bmp		1.4740	Subsequent_Miss
111.9473	2.5	stimuli/Faces/JWmale89neutral.bmp		0.8594	Subsequent_Hit
115.9341	2.5	stimuli/Faces/JWfemale78neutral.bmp		0.7688	Subsequent_Miss
119.8548	2.5	stimuli/Faces/JWfemale71-2neutral.bmp		1.4487	Subsequent_Miss
123.0732	2.5	stimuli/Faces/TSFWfemale34neutral.bmp		1.1104	Subsequent_Hit
126.4744	2.5	stimuli/Faces/TSFBmale77neutral.bmp		0.8672	Subsequent_Hit
130.2269	2.5	stimuli/Faces/EMImale24-4neutral.bmp		1.1568	Subsequent_Miss
133.3297	2.5	stimuli/Faces/EMWmale40neutral.bmp		1.0901	Subsequent_Miss
136.8984	2.5	stimuli/Faces/JWfemale72-2neutral.bmp		1.0755	Subsequent_Miss
140.3351	2.5	stimuli/Faces/JWfemale65-4neutral.bmp		1.2735	Subsequent_Miss
143.9870	2.5	stimuli/Faces/TMBfemale30neutral.bmp		0.9187	Subsequent_Miss
147.4562	2.5	stimuli/Faces/TMWfemale49-2neutral.bmp		1.4615	Subsequent_Miss
150.5749	2.5	stimuli/Faces/JWfemale60neutral.bmp		1.2951	Subsequent_Hit
154.4628	2.5	stimuli/Faces/TMBmale41neutral.bmp		0.9438	Subsequent_Hit
157.4813	2.5	stimuli/Faces/TMBfemale51neutral.bmp		1.3313	Subsequent_Miss
161.0993	2.5	stimuli/Faces/EMImale25neutral.bmp		1.0834	Subsequent_Miss
164.3028	2.5	stimuli/Faces/TMBfemale41neutral.bmp		1.0449	Subsequent_Miss
167.4870	2.5	stimuli/Faces/EMIfemale26neutral.bmp		1.2737	Subsequent_Miss
171.1565	2.5	stimuli/Faces/EMImale24-2neutral.bmp		1.4542	Subsequent_Miss
174.4256	2.5	stimuli/Faces/JWfemale71-5neutral.bmp		1.2211	Subsequent_Miss
177.9114	2.5	stimuli/Faces/WBfemale47neutral.bmp		1.4562	Subsequent_Miss
181.1474	2.5	stimuli/Faces/EMWmale32neutral.bmp		0.8772	Subsequent_Hit
184.9496	2.5	stimuli/Faces/TMWfemale40neutral.bmp		0.8281	Subsequent_Miss
188.2519	2.5	stimuli/Faces/EMIfemale25neutral.bmp		0.7010	Subsequent_Miss
192.1380	2.5	stimuli/Faces/Wmale_50.bmp		1.5250	Subsequent_Hit
195.6919	2.5	stimuli/Faces/TSFWmale61neutral.bmp		1.1408	Subsequent_Miss
198.9430	2.5	stimuli/Faces/TSFWmale63neutral.bmp		0.8900	Subsequent_Miss
202.1138	2.5	stimuli/Faces/TMBfemale33neutral.bmp		0.9758	Subsequent_Hit
205.6155	2.5	stimuli/Faces/Wmale_55.bmp		1.3603	Subsequent_Miss
209.2005	2.5	stimuli/Faces/JBmale68neutral.bmp		0.8603	Subsequent_Miss
212.2856	2.5	stimuli/Faces/TSFAmale68neutral.bmp		0.8340	Subsequent_Miss
215.3549	2.5	stimuli/Faces/TMBmale21neutral.bmp		0.7576	Subsequent_Miss
219.2246	2.5	stimuli/Faces/Wmale_55-3.bmp		0.8191	Subsequent_Miss
223.1782	2.5	stimuli/Faces/TMWfemale35neutral.bmp		1.1356	Subsequent_Miss
226.7465	2.5	stimuli/Faces/TMBfemale37neutral.bmp		1.4169	Subsequent_Miss
230.4656	2.5	stimuli/Faces/TSFWmale77neutral.bmp		1.2801	Subsequent_Miss
233.8516	2.5	stimuli/Faces/EMBfemale33neutral.bmp		1.1409	Subsequent_Miss
236.9870	2.5	stimuli/Faces/JWfemale77-4neutral.bmp		0.7287	Subsequent_Miss
240.5415	2.5	stimuli/Faces/TSFBfemale65neutral.bmp		1.0331	Subsequent_Hit
244.3926	2.5	stimuli/Faces/EMWfemale30neutral.bmp		0.7519	Subsequent_Miss
248.2290	2.5	stimuli/Faces/JWmale67neutral.bmp		0.9250	Subsequent_Hit
251.7143	2.5	stimuli/Faces/TSFWmale79-3neutral.bmp		0.9423	Subsequent_Miss
255.7018	2.5	stimuli/Faces/TMWmale22-3neutral.bmp		0.8678	Subsequent_Miss
259.6200	2.5	stimuli/Faces/EMBfemale49neutral.bmp		1.4887	Subsequent_Miss
263.0059	2.5	stimuli/Faces/TSFWmale71neutral.bmp		0.9718	Subsequent_Miss
266.7752	2.5	stimuli/Faces/JWmale71neutral.bmp		0.8264	Subsequent_Miss
270.1440	2.5	stimuli/Faces/TMWmale43neutral.bmp		0.8947	Subsequent_Miss
273.5799	2.5	stimuli/Faces/TMBmale24neutral.bmp		1.1819	Subsequent_Hit
277.5659	2.5	stimuli/Faces/TSFWmale37neutral.bmp		0.6756	Subsequent_Miss
281.1854	2.5	stimuli/Faces/TSFWmale57neutral.bmp		0.7213	Subsequent_Miss
284.4545	2.5	stimuli/Faces/TSFWmale75-3neutral.bmp		0.7861	Subsequent_Hit
288.1071	2.5	stimuli/Faces/JWfemale79-4neutral.bmp		0.6726	Subsequent_Miss
291.2259	2.5	stimuli/Faces/TSFBfemale63neutral.bmp		0.8497	Subsequent_Hit
294.9286	2.5	stimuli/Faces/TMWmale34-2neutral.bmp		0.7431	Subsequent_Miss
298.2164	2.5	stimuli/Faces/TMBmale18neutral.bmp		0.6661	Subsequent_Hit
302.0353	2.5	stimuli/Faces/EMBfemale22-3neutral.bmp		1.1742	Subsequent_Hit
305.5696	2.5	stimuli/Faces/JWmale64neutral.bmp		1.1611	Subsequent_Miss
309.3393	2.5	stimuli/Faces/TSFBfemale67neutral.bmp		0.7794	Subsequent_Miss
313.3601	2.5	stimuli/Faces/JWmale65neutral.bmp		0.6445	Subsequent_Miss
317.1611	2.5	stimuli/Faces/TMBmale39neutral.bmp		0.6664	Subsequent_Miss
320.8974	2.5	stimuli/Faces/TMWmale20-4neutral.bmp		1.0162	Subsequent_Miss
324.2164	2.5	stimuli/Faces/JWfemale73-2neutral.bmp		0.9660	Subsequent_Miss
327.4355	2.5	stimuli/Faces/JWfemale74neutral.bmp		0.9812	Subsequent_Miss
330.8039	2.5	stimuli/Faces/TSFWmale79neutral.bmp		1.0257	Subsequent_Hit
334.3238	2.5	stimuli/Faces/TMWfemale43neutral.bmp		1.2788	Subsequent_Miss
337.9107	2.5	stimuli/Faces/WBmale31neutral.bmp		0.8478	Subsequent_Miss
341.8793	2.5	stimuli/Faces/EMWmale52neutral.bmp		0.8331	Subsequent_Miss
345.5483	2.5	stimuli/Faces/JWfemale78-6neutral.bmp		0.8004	Subsequent_Hit
349.4348	2.5	stimuli/Faces/TMWmale25-2neutral.bmp		1.2181	Subsequent_Miss
