onset	duration	face	response	response_time	trial_type
1.4506	2.5	stimuli/Faces/JWfemale81-3neutral.bmp		1.1047	Subsequent_Hit
4.9537	2.5	stimuli/Faces/TSFWmale88neutral.bmp		0.6945	Subsequent_Hit
8.3894	2.5	stimuli/Faces/EMIfemale19neutral.bmp		1.4127	Subsequent_Hit
12.0596	2.5	stimuli/Faces/JWfemale86-2neutral.bmp		1.0777	Subsequent_Miss
15.8792	2.5	stimuli/Faces/JWmale81-2neutral.bmp		1.8330	Subsequent_Hit
19.8654	2.5	stimuli/Faces/JWfemale74-2neutral.bmp	NaN	NaN	Subsequent_Hit
22.8825	2.5	stimuli/Faces/JWfemale37neutral.bmp		0.6415	Subsequent_Hit
26.8868	2.5	stimuli/Faces/JWfemale77-4neutral.bmp		1.3867	Subsequent_Hit
30.4552	2.5	stimuli/Faces/JWfemale42neutral.bmp		2.1101	Subsequent_Hit
34.2242	2.5	stimuli/Faces/JWfemale63-3neutral.bmp		1.4469	Subsequent_Hit
37.5775	2.5	stimuli/Faces/TMBfemale30neutral.bmp		2.4456	Subsequent_Hit
41.0127	2.5	stimuli/Faces/JWmale79neutral.bmp		1.9135	Subsequent_Hit
44.9322	2.5	stimuli/Faces/EMImale21-2neutral.bmp		0.8243	Subsequent_Hit
48.5683	2.5	stimuli/Faces/TMBmale39neutral.bmp		1.2841	Subsequent_Hit
51.7051	2.5	stimuli/Faces/TSFWmale70neutral.bmp		2.3112	Subsequent_Hit
55.3396	2.5	stimuli/Faces/JWfemale80-4neutral.bmp		1.4235	Subsequent_Miss
59.1256	2.5	stimuli/Faces/TSFBfemale50neutral.bmp		1.1946	Subsequent_Miss
62.9784	2.5	stimuli/Faces/TSFBfemale63neutral.bmp		1.0968	Subsequent_Hit
66.6320	2.5	stimuli/Faces/TMWmale34-3neutral.bmp		1.2994	Subsequent_Miss
69.9016	2.5	stimuli/Faces/JWfemale78neutral.bmp		0.9967	Subsequent_Hit
73.7045	2.5	stimuli/Faces/TMWmale22-3neutral.bmp		1.2496	Subsequent_Hit
77.4555	2.5	stimuli/Faces/EMWmale20neutral.bmp		1.0159	Subsequent_Miss
81.3912	2.5	stimuli/Faces/EMWmale21-3neutral.bmp		1.7501	Subsequent_Hit
84.8106	2.5	stimuli/Faces/JWfemale74neutral.bmp		1.0420	Subsequent_Hit
88.6319	2.5	stimuli/Faces/TMWmale41neutral.bmp		1.8294	Subsequent_Hit
92.5007	2.5	stimuli/Faces/TMBmale24neutral.bmp		1.2425	Subsequent_Hit
95.7854	2.5	stimuli/Faces/EMWfemale30neutral.bmp		1.6597	Subsequent_Hit
99.0877	2.5	stimuli/Faces/TSFBfemale61neutral.bmp		0.9037	Subsequent_Hit
102.1406	2.5	stimuli/Faces/EMWmale19neutral.bmp		1.3703	Subsequent_Hit
105.7440	2.5	stimuli/Faces/EMBfemale29neutral.bmp		1.1352	Subsequent_Hit
109.0449	2.5	stimuli/Faces/JWfemale76-3neutral.bmp		0.7275	Subsequent_Hit
112.7146	2.5	stimuli/Faces/TSFWfemale34neutral.bmp		0.7894	Subsequent_Hit
116.7174	2.5	stimuli/Faces/TSFWmale74neutral.bmp		0.6318	Subsequent_Miss
119.8874	2.5	stimuli/Faces/JBmale68neutral.bmp		0.6591	Subsequent_Hit
123.0061	2.5	stimuli/Faces/EMImale23-6neutral.bmp		0.8062	Subsequent_Hit
127.0248	2.5	stimuli/Faces/TMWmale34-4neutral.bmp		0.8403	Subsequent_Miss
130.5774	2.5	stimuli/Faces/TSFWmale71neutral.bmp		0.8798	Subsequent_Hit
134.1962	2.5	stimuli/Faces/EMIfemale25neutral.bmp		1.2168	Subsequent_Hit
137.4987	2.5	stimuli/Faces/TMWmale33neutral.bmp		1.0855	Subsequent_Hit
141.2512	2.5	stimuli/Faces/Wmale_65.bmp		0.7228	Subsequent_Miss
144.4034	2.5	stimuli/Faces/EMWfemale24-2neutral.bmp		1.1256	Subsequent_Hit
148.3746	2.5	stimuli/Faces/TSFBmale50neutral.bmp		1.3686	Subsequent_Hit
151.7604	2.5	stimuli/Faces/JWfemale69-2neutral.bmp		0.6237	Subsequent_Hit
154.9609	2.5	stimuli/Faces/EMBfemale26neutral.bmp		0.8611	Subsequent_Miss
158.0466	2.5	stimuli/Faces/WBfemale47neutral.bmp		1.0846	Subsequent_Miss
162.0163	2.5	stimuli/Faces/JWfemale65-2neutral.bmp		0.6039	Subsequent_Miss
165.3522	2.5	stimuli/Faces/JWfemale68-2neutral.bmp		0.5689	Subsequent_Hit
168.4205	2.5	stimuli/Faces/TMWmale37-2neutral.bmp		0.9920	Subsequent_Hit
171.4559	2.5	stimuli/Faces/TSFWmale57neutral.bmp		0.6333	Subsequent_Hit
174.7096	2.5	stimuli/Faces/JWfemale65-4neutral.bmp		0.5856	Subsequent_Hit
177.9777	2.5	stimuli/Faces/JWmale83neutral.bmp		0.7144	Subsequent_Hit
181.1299	2.5	stimuli/Faces/TMWfemale36neutral.bmp		1.1143	Subsequent_Hit
184.6334	2.5	stimuli/Faces/JWmale88neutral.bmp		0.5487	Subsequent_Miss
187.8182	2.5	stimuli/Faces/EMBmale20neutral.bmp		1.6028	Subsequent_Hit
191.3872	2.5	stimuli/Faces/JWfemale64-3neutral.bmp		1.1932	Subsequent_Hit
194.9898	2.5	stimuli/Faces/EMBmale26neutral.bmp		0.7493	Subsequent_Miss
198.8942	2.5	stimuli/Faces/TMWmale25-2neutral.bmp		1.7789	Subsequent_Miss
202.4286	2.5	stimuli/Faces/TMBfemale41neutral.bmp		1.4526	Subsequent_NoResp
205.6810	2.5	stimuli/Faces/TMBfemale33-2neutral.bmp		1.3201	Subsequent_Miss
209.3839	2.5	stimuli/Faces/JWfemale82-2neutral.bmp		0.9462	Subsequent_Miss
212.4356	2.5	stimuli/Faces/EMWfemale20-2neutral.bmp		2.0996	Subsequent_Hit
216.1566	2.5	stimuli/Faces/JWmale89neutral.bmp		0.6976	Subsequent_Miss
219.3241	2.5	stimuli/Faces/TSFWmale79-3neutral.bmp		0.9691	Subsequent_Hit
222.8100	2.5	stimuli/Faces/JWfemale50neutral.bmp		0.6720	Subsequent_Hit
226.3287	2.5	stimuli/Faces/TSFWmale79neutral.bmp		0.5918	Subsequent_Miss
229.7499	2.5	stimuli/Faces/TMBfemale40neutral.bmp		1.0403	Subsequent_Miss
233.5502	2.5	stimuli/Faces/TMBfemale57neutral.bmp		1.5129	Subsequent_Miss
237.2534	2.5	stimuli/Faces/JWmale69-2neutral.bmp		1.0287	Subsequent_Miss
241.2065	2.5	stimuli/Faces/JWmale38neutral.bmp		0.8005	Subsequent_Miss
244.9091	2.5	stimuli/Faces/EMIfemale26neutral.bmp		1.5539	Subsequent_Hit
248.4615	2.5	stimuli/Faces/EMWmale19-3neutral.bmp		1.0704	Subsequent_Miss
251.5803	2.5	stimuli/Faces/EMWmale32neutral.bmp		1.0468	Subsequent_Hit
255.0328	2.5	stimuli/Faces/TSFWmale66-2neutral.bmp		0.6794	Subsequent_Miss
258.4872	2.5	stimuli/Faces/TSFBfemale62neutral.bmp		0.7298	Subsequent_Hit
261.8875	2.5	stimuli/Faces/EMWmale52neutral.bmp		1.0465	Subsequent_Hit
264.9575	2.5	stimuli/Faces/EMBmale55neutral.bmp		1.2457	Subsequent_Miss
268.7935	2.5	stimuli/Faces/TSFWmale42neutral.bmp		0.9336	Subsequent_Hit
272.1455	2.5	stimuli/Faces/Wmale_55-2.bmp		0.8146	Subsequent_Hit
275.7656	2.5	stimuli/Faces/EMBfemale21-4neutral.bmp		0.6357	Subsequent_Miss
278.9667	2.5	stimuli/Faces/JWfemale78-6neutral.bmp		0.9373	Subsequent_Hit
282.8529	2.5	stimuli/Faces/TMWfemale37neutral.bmp		0.7380	Subsequent_Hit
286.3729	2.5	stimuli/Faces/TSFBfemale74-2neutral.bmp		0.8273	Subsequent_Hit
289.8413	2.5	stimuli/Faces/TSFBfemale54neutral.bmp		1.1537	Subsequent_Hit
293.1606	2.5	stimuli/Faces/JWfemale60neutral.bmp		0.8376	Subsequent_Miss
296.8962	2.5	stimuli/Faces/TMWfemale34-2neutral.bmp		1.2688	Subsequent_Miss
300.2987	2.5	stimuli/Faces/TSFWfemale52-2neutral.bmp		0.9873	Subsequent_Hit
304.1696	2.5	stimuli/Faces/TMBfemale37neutral.bmp		0.6396	Subsequent_Miss
307.3872	2.5	stimuli/Faces/EMWfemale22neutral.bmp		1.9599	Subsequent_Hit
310.4893	2.5	stimuli/Faces/EMWmale33neutral.bmp		0.7877	Subsequent_Hit
313.8593	2.5	stimuli/Faces/JWfemale77-2neutral.bmp		0.5607	Subsequent_Miss
317.7279	2.5	stimuli/Faces/TMWmale20-4neutral.bmp		1.0631	Subsequent_Hit
320.9483	2.5	stimuli/Faces/TMBmale30neutral.bmp		0.9436	Subsequent_Hit
324.3162	2.5	stimuli/Faces/TMWfemale49-2neutral.bmp		0.8077	Subsequent_Hit
327.5848	2.5	stimuli/Faces/JWfemale48neutral.bmp		0.6891	Subsequent_Hit
331.4878	2.5	stimuli/Faces/Wmale_55-3.bmp		1.4496	Subsequent_Hit
335.4071	2.5	stimuli/Faces/TSFBfemale63-2neutral.bmp		0.7263	Subsequent_Miss
338.5101	2.5	stimuli/Faces/TSFBfemale65-3neutral.bmp		0.7861	Subsequent_Hit
342.2797	2.5	stimuli/Faces/JWfemale71-2neutral.bmp		0.6682	Subsequent_Hit
345.9652	2.5	stimuli/Faces/EMWfemale21-3neutral.bmp		1.2911	Subsequent_Hit
349.5365	2.5	stimuli/Faces/TMBmale21neutral.bmp		1.5116	Subsequent_Hit
