onset	duration	face	response	response_time	trial_type
0.5671	2.5	stimuli/Faces/TMWmale33neutral.bmp		1.2856	Hit
3.6860	2.5	stimuli/Faces/JBmale68neutral.bmp		0.8356	Hit
6.7380	2.5	stimuli/Faces/TMWfemale37neutral.bmp		0.6731	Hit
10.4906	2.5	stimuli/Faces/JWmale65neutral.bmp		1.5070	CR
14.4111	2.5	stimuli/Faces/JWfemale39neutral.bmp		0.9395	CR
18.2298	2.5	stimuli/Faces/TMWmale43neutral.bmp		0.8518	CR
21.2492	2.5	stimuli/Faces/TMWmale30neutral.bmp		1.1533	Hit
24.5843	2.5	stimuli/Faces/EMImale25-2neutral.bmp		0.8194	Hit
28.0202	2.5	stimuli/Faces/TMBfemale33neutral.bmp		0.8475	Hit
31.2736	2.5	stimuli/Faces/TSFBmale50neutral.bmp		0.7431	Hit
34.8925	2.5	stimuli/Faces/TMBmale18neutral.bmp		0.9541	CR
38.0115	2.5	stimuli/Faces/TMWfemale34-2neutral.bmp		1.3262	Hit
41.4137	2.5	stimuli/Faces/TSFBfemale65-3neutral.bmp		1.3587	Hit
44.6157	2.5	stimuli/Faces/EMBfemale22-4neutral.bmp		0.8610	Hit
48.6016	2.5	stimuli/Faces/TSFWmale88neutral.bmp		1.2471	CR
52.0716	2.5	stimuli/Faces/JWmale70neutral.bmp		1.0130	Hit
55.8735	2.5	stimuli/Faces/JWmale89neutral.bmp		1.1442	CR
59.1773	2.5	stimuli/Faces/JWmale81-2neutral.bmp		1.7593	Hit
62.5287	2.5	stimuli/Faces/EMBfemale20-2neutral.bmp		0.9418	Hit
66.3477	2.5	stimuli/Faces/EMBmale26neutral.bmp		1.0491	CR
69.5007	2.5	stimuli/Faces/JWfemale78neutral.bmp		1.0413	Hit
73.0525	2.5	stimuli/Faces/EMWfemale25neutral.bmp		0.9362	CR
76.3055	2.5	stimuli/Faces/EMBfemale21neutral.bmp		1.8032	Hit
80.1577	2.5	stimuli/Faces/TSFBfemale62neutral.bmp		1.4550	CR
83.5268	2.5	stimuli/Faces/JWmale79neutral.bmp		1.5429	Miss
87.4296	2.5	stimuli/Faces/EMBfemale25neutral.bmp		0.9321	CR
90.8654	2.5	stimuli/Faces/EMWfemale30neutral.bmp		1.0076	Hit
94.6514	2.5	stimuli/Faces/TMWfemale31neutral.bmp		1.0372	CR
97.7704	2.5	stimuli/Faces/JWmale86neutral.bmp		1.0312	Hit
101.4246	2.5	stimuli/Faces/TMWmale25-2neutral.bmp		0.7302	CR
105.3591	2.5	stimuli/Faces/JWfemale66neutral.bmp		0.9815	CR
108.7622	2.5	stimuli/Faces/JWfemale70-4neutral.bmp		1.5920	Hit
112.4642	2.5	stimuli/Faces/TMWmale79neutral.bmp		1.2815	CR
115.7332	2.5	stimuli/Faces/JWfemale68-2neutral.bmp		1.2057	Hit
119.5194	2.5	stimuli/Faces/JWmale83-2neutral.bmp		0.9246	CR
123.4729	2.5	stimuli/Faces/TMWmale34-4neutral.bmp		1.4379	CR
127.0079	2.5	stimuli/Faces/TSFWmale37neutral.bmp		0.7938	CR
130.2105	2.5	stimuli/Faces/TMBmale41neutral.bmp		1.2839	Hit
133.8296	2.5	stimuli/Faces/TMWmale34-3neutral.bmp		0.9912	CR
136.9992	2.5	stimuli/Faces/JWfemale64-3neutral.bmp		1.4555	Hit
140.6673	2.5	stimuli/Faces/EMWmale21-3neutral.bmp		1.2722	CR
144.0209	2.5	stimuli/Faces/TSFWmale71-4neutral.bmp		1.3080	Miss
147.4902	2.5	stimuli/Faces/TSFWmale66-2neutral.bmp		1.2711	Miss
151.2587	2.5	stimuli/Faces/TSFBfemale78-2neutral.bmp	NaN	NaN	NoResp
155.2616	2.5	stimuli/Faces/JWfemale78-6neutral.bmp		1.1690	CR
158.3490	2.5	stimuli/Faces/EMImale23-6neutral.bmp		1.3787	Hit
162.0498	2.5	stimuli/Faces/EMWmale20neutral.bmp		0.9148	CR
165.4191	2.5	stimuli/Faces/JWmale66neutral.bmp		0.9123	Miss
169.0713	2.5	stimuli/Faces/EMWfemale21-3neutral.bmp		0.7843	CR
172.3573	2.5	stimuli/Faces/EMIfemale26neutral.bmp		1.0062	Hit
175.4930	2.5	stimuli/Faces/TSFWmale79neutral.bmp		1.2275	Miss
179.3620	2.5	stimuli/Faces/JWmale67neutral.bmp		1.2515	CR
182.7480	2.5	stimuli/Faces/EMWmale32neutral.bmp		1.4155	Hit
186.1836	2.5	stimuli/Faces/TSFWmale42neutral.bmp		0.9163	Miss
189.7864	2.5	stimuli/Faces/TMWmale37-2neutral.bmp		1.2302	CR
193.0884	2.5	stimuli/Faces/TMWfemale36neutral.bmp		1.1612	Hit
196.5913	2.5	stimuli/Faces/JWfemale79-4neutral.bmp		2.0473	Miss
200.3105	2.5	stimuli/Faces/TSFAmale68neutral.bmp		1.0802	CR
204.1634	2.5	stimuli/Faces/EMWfemale34neutral.bmp		1.0762	CR
208.1828	2.5	stimuli/Faces/TMWmale20-4neutral.bmp		0.7359	CR
212.1692	2.5	stimuli/Faces/JWfemale48neutral.bmp		0.9188	CR
216.0886	2.5	stimuli/Faces/EMImale23-2neutral.bmp		1.5669	CR
219.7578	2.5	stimuli/Faces/TSFBfemale70-2neutral.bmp		0.9906	CR
222.9773	2.5	stimuli/Faces/TMBfemale57neutral.bmp		0.9782	Hit
226.9639	2.5	stimuli/Faces/EMBfemale20neutral.bmp		1.1298	CR
230.0487	2.5	stimuli/Faces/JWfemale63-3neutral.bmp		0.9619	Hit
233.9348	2.5	stimuli/Faces/TSFWmale57neutral.bmp		0.8577	CR
237.0037	2.5	stimuli/Faces/TSFWmale63neutral.bmp		1.0572	Hit
240.8925	2.5	stimuli/Faces/JWfemale79neutral.bmp		1.1381	CR
244.4257	2.5	stimuli/Faces/TSFBfemale67neutral.bmp		1.2529	CR
247.5285	2.5	stimuli/Faces/JWmale64neutral.bmp		1.3951	Miss
250.6962	2.5	stimuli/Faces/TMBmale24neutral.bmp		1.4204	Miss
254.4495	2.5	stimuli/Faces/JWfemale76-4neutral.bmp		1.1001	CR
258.2031	2.5	stimuli/Faces/JWfemale65-4neutral.bmp		1.0215	CR
261.7382	2.5	stimuli/Faces/JWfemale72-2neutral.bmp		1.8264	Hit
265.6910	2.5	stimuli/Faces/JWfemale65-6neutral.bmp		1.0012	CR
269.6105	2.5	stimuli/Faces/EMIfemale19neutral.bmp		0.7370	CR
273.4306	2.5	stimuli/Faces/EMIfemale25-2neutral.bmp		1.3358	CR
277.1327	2.5	stimuli/Faces/TSFBmale77neutral.bmp		0.8038	CR
280.5516	2.5	stimuli/Faces/JWfemale74neutral.bmp		1.5422	Hit
284.0706	2.5	stimuli/Faces/TMBmale49neutral.bmp		1.1748	CR
287.2901	2.5	stimuli/Faces/TSFWmale70neutral.bmp		1.7675	Miss
291.2265	2.5	stimuli/Faces/Wmale_55.bmp		0.8301	CR
294.5467	2.5	stimuli/Faces/JWmale83neutral.bmp		1.7820	Miss
297.7307	2.5	stimuli/Faces/JWfemale67-4neutral.bmp		1.5288	Hit
301.2176	2.5	stimuli/Faces/TMBfemale33-2neutral.bmp		1.3549	Miss
304.5022	2.5	stimuli/Faces/TSFBfemale65-2neutral.bmp		0.9233	Hit
308.0881	2.5	stimuli/Faces/JWfemale77neutral.bmp		1.1444	CR
311.7740	2.5	stimuli/Faces/TMBfemale37neutral.bmp		0.8266	CR
315.0110	2.5	stimuli/Faces/EMImale24-4neutral.bmp		0.9865	Hit
318.0453	2.5	stimuli/Faces/EMImale25neutral.bmp		0.9693	Hit
321.5496	2.5	stimuli/Faces/EMBfemale49neutral.bmp		1.0733	Miss
325.1669	2.5	stimuli/Faces/Wmale_55-3.bmp		0.6977	CR
328.7197	2.5	stimuli/Faces/EMBmale20neutral.bmp		1.0280	CR
332.3730	2.5	stimuli/Faces/JWfemale73-2neutral.bmp		0.7755	CR
336.1083	2.5	stimuli/Faces/JWfemale50neutral.bmp		0.5931	CR
339.6774	2.5	stimuli/Faces/JWfemale71-5neutral.bmp		1.1840	CR
343.1319	2.5	stimuli/Faces/EMIfemale25neutral.bmp		1.3559	Hit
346.4489	2.5	stimuli/Faces/TMBfemale41neutral.bmp		0.9995	Miss
349.5017	2.5	stimuli/Faces/TMBfemale30neutral.bmp		1.3399	Hit
