onset	duration	face	response	response_time	trial_type
0.5171	2.5	stimuli/Faces/TSFWmale61neutral.bmp		1.4403	Hit
4.1371	2.5	stimuli/Faces/TSFWmale71-4neutral.bmp		1.0985	CR
7.8060	2.5	stimuli/Faces/TSFWmale66-2neutral.bmp		1.1723	CR
10.8586	2.5	stimuli/Faces/TSFWmale71neutral.bmp		0.8888	Miss
14.8107	2.5	stimuli/Faces/JWfemale77-4neutral.bmp		2.1500	CR
18.6645	2.5	stimuli/Faces/JWfemale82-2neutral.bmp		1.0191	FA
22.6002	2.5	stimuli/Faces/EMWfemale24-2neutral.bmp		1.7543	CR
25.8203	2.5	stimuli/Faces/JWmale66neutral.bmp		1.4321	Hit
28.8540	2.5	stimuli/Faces/TSFWmale46neutral.bmp		0.9155	Hit
32.1898	2.5	stimuli/Faces/JWmale64neutral.bmp		0.9647	Hit
35.3418	2.5	stimuli/Faces/TMBmale30neutral.bmp		1.2595	Miss
39.1280	2.5	stimuli/Faces/TMWmale25-2neutral.bmp		1.6965	CR
42.9659	2.5	stimuli/Faces/EMImale25-2neutral.bmp		1.3976	FA
46.1846	2.5	stimuli/Faces/TSFAmale68neutral.bmp		0.9538	Hit
49.9859	2.5	stimuli/Faces/EMWmale21-3neutral.bmp		2.1787	CR
53.1216	2.5	stimuli/Faces/EMImale25neutral.bmp		1.1266	Hit
56.3906	2.5	stimuli/Faces/JWfemale77-2neutral.bmp		0.9637	Hit
59.5095	2.5	stimuli/Faces/JWfemale39neutral.bmp		0.8090	Hit
63.3788	2.5	stimuli/Faces/EMBmale20neutral.bmp		1.3836	FA
67.3322	2.5	stimuli/Faces/JWfemale72-2neutral.bmp		1.0853	CR
71.3344	2.5	stimuli/Faces/EMIfemale26neutral.bmp		1.5311	CR
74.5368	2.5	stimuli/Faces/TMWmale32neutral.bmp		1.7647	Miss
77.8068	2.5	stimuli/Faces/EMBfemale22neutral.bmp		1.7477	Miss
80.9578	2.5	stimuli/Faces/Wmale_55-2.bmp		0.8845	Hit
84.8444	2.5	stimuli/Faces/TSFWmale70neutral.bmp		1.8731	CR
88.7638	2.5	stimuli/Faces/TMWfemale31neutral.bmp		1.6968	CR
91.9339	2.5	stimuli/Faces/TMBmale39neutral.bmp		2.2205	Miss
95.4364	2.5	stimuli/Faces/JWfemale42neutral.bmp		1.2672	Hit
99.4545	2.5	stimuli/Faces/EMBfemale22-4neutral.bmp		1.8116	CR
103.1073	2.5	stimuli/Faces/TMWfemale36neutral.bmp		1.2191	CR
106.5598	2.5	stimuli/Faces/TSFBfemale65-3neutral.bmp		0.8229	Hit
109.6624	2.5	stimuli/Faces/JWfemale67-4neutral.bmp		1.7738	Hit
113.2640	2.5	stimuli/Faces/JWmale76neutral.bmp		1.0173	CR
116.8173	2.5	stimuli/Faces/TSFWmale37neutral.bmp		1.6100	CR
120.5196	2.5	stimuli/Faces/JWfemale65-2neutral.bmp		1.3779	FA
123.7730	2.5	stimuli/Faces/TMWmale79neutral.bmp		1.2284	Hit
126.8590	2.5	stimuli/Faces/JWfemale76-4neutral.bmp		1.1335	Hit
130.5772	2.5	stimuli/Faces/JWfemale77neutral.bmp		0.9712	CR
133.9962	2.5	stimuli/Faces/Wmale_55-3.bmp		1.3882	Hit
137.7488	2.5	stimuli/Faces/TSFWmale63neutral.bmp		1.1626	CR
140.8009	2.5	stimuli/Faces/WBfemale47neutral.bmp		1.2556	Hit
144.2050	2.5	stimuli/Faces/JWfemale63-3neutral.bmp		0.7513	Hit
147.9569	2.5	stimuli/Faces/TSFBfemale63-2neutral.bmp		1.0437	CR
151.0584	2.5	stimuli/Faces/TMBmale18neutral.bmp		1.5833	Hit
154.3611	2.5	stimuli/Faces/EMBfemale29neutral.bmp		0.8154	Hit
158.0471	2.5	stimuli/Faces/JWmale79neutral.bmp		2.0262	CR
161.4000	2.5	stimuli/Faces/TMWmale19neutral.bmp		1.2765	Hit
165.1706	2.5	stimuli/Faces/TSFWmale69neutral.bmp		1.1717	FA
168.5874	2.5	stimuli/Faces/TSFWmale79neutral.bmp		0.8265	Hit
172.1571	2.5	stimuli/Faces/EMBfemale33neutral.bmp		0.6501	FA
176.1447	2.5	stimuli/Faces/TMWfemale49-2neutral.bmp		0.9669	CR
179.9625	2.5	stimuli/Faces/TMBfemale30neutral.bmp		0.9050	CR
183.3648	2.5	stimuli/Faces/TMBmale24neutral.bmp		1.3656	Miss
186.7349	2.5	stimuli/Faces/TSFBfemale65-2neutral.bmp		1.3554	Hit
190.5539	2.5	stimuli/Faces/TMBmale21neutral.bmp		1.0518	CR
193.6723	2.5	stimuli/Faces/EMBfemale21-3neutral.bmp		1.8850	Hit
197.1916	2.5	stimuli/Faces/TSFWmale77neutral.bmp		0.9094	FA
200.7607	2.5	stimuli/Faces/TSFWfemale52-2neutral.bmp		0.9297	CR
203.9965	2.5	stimuli/Faces/JWmale65neutral.bmp		1.3119	Miss
207.4826	2.5	stimuli/Faces/TSFWmale68-2neutral.bmp		0.7285	Hit
211.4544	2.5	stimuli/Faces/JWfemale80-4neutral.bmp		1.5892	CR
215.1547	2.5	stimuli/Faces/TSFBfemale65neutral.bmp		1.3097	CR
218.7412	2.5	stimuli/Faces/EMImale24-4neutral.bmp		1.9641	CR
222.2103	2.5	stimuli/Faces/JWmale70neutral.bmp		0.8819	Hit
225.5123	2.5	stimuli/Faces/EMWmale20neutral.bmp		1.0791	Hit
229.0476	2.5	stimuli/Faces/TSFWmale79-3neutral.bmp		0.6930	FA
232.1172	2.5	stimuli/Faces/TSFWmale74neutral.bmp		0.8290	Hit
235.8526	2.5	stimuli/Faces/TSFWmale54neutral.bmp		0.9086	CR
239.3718	2.5	stimuli/Faces/TMWmale22-3neutral.bmp		1.1046	Hit
242.5580	2.5	stimuli/Faces/JWmale67neutral.bmp		1.3246	Miss
246.2117	2.5	stimuli/Faces/JWfemale70-4neutral.bmp		2.0386	FA
250.1137	2.5	stimuli/Faces/JWfemale78-3neutral.bmp		1.4977	CR
253.9828	2.5	stimuli/Faces/TMWmale34-3neutral.bmp		1.2823	CR
257.8370	2.5	stimuli/Faces/TMWmale34-4neutral.bmp		1.4782	CR
261.1556	2.5	stimuli/Faces/TSFWmale88neutral.bmp		1.3980	Hit
264.6065	2.5	stimuli/Faces/Wmale_50.bmp		0.7938	Hit
268.3777	2.5	stimuli/Faces/TMWmale45neutral.bmp		0.9233	CR
271.8452	2.5	stimuli/Faces/EMImale24-2neutral.bmp		1.5019	Hit
275.4981	2.5	stimuli/Faces/EMWmale52neutral.bmp		1.0272	CR
278.7499	2.5	stimuli/Faces/EMWfemale20-2neutral.bmp		1.0967	Hit
282.6536	2.5	stimuli/Faces/TMWmale34neutral.bmp		0.9057	CR
285.7226	2.5	stimuli/Faces/TSFHmale65neutral.bmp		1.3896	Hit
288.9076	2.5	stimuli/Faces/EMWmale33neutral.bmp		1.2407	Hit
292.6765	2.5	stimuli/Faces/TMWmale71neutral.bmp		1.4831	CR
296.5980	2.5	stimuli/Faces/EMBfemale26neutral.bmp		0.7611	FA
299.9655	2.5	stimuli/Faces/TSFWmale42neutral.bmp		1.5497	Hit
303.4012	2.5	stimuli/Faces/EMWfemale25neutral.bmp		1.1881	Hit
306.6866	2.5	stimuli/Faces/EMWfemale22-3neutral.bmp		0.7506	Hit
310.0070	2.5	stimuli/Faces/EMWmale19neutral.bmp		1.0582	Miss
313.5099	2.5	stimuli/Faces/TMWfemale43neutral.bmp		1.5897	Miss
316.8441	2.5	stimuli/Faces/JWfemale73-2neutral.bmp		1.1053	Hit
320.4805	2.5	stimuli/Faces/EMIfemale25-2neutral.bmp		1.2067	FA
324.4330	2.5	stimuli/Faces/Wmale_55.bmp		1.0003	CR
328.4373	2.5	stimuli/Faces/TSFBfemale54neutral.bmp		1.6080	FA
332.1558	2.5	stimuli/Faces/EMIfemale25neutral.bmp		0.9493	CR
335.7243	2.5	stimuli/Faces/TMBfemale33-2neutral.bmp		1.2131	CR
339.0767	2.5	stimuli/Faces/EMBfemale20-2neutral.bmp		0.7887	Hit
342.2462	2.5	stimuli/Faces/TMBfemale41neutral.bmp		0.8912	Hit
345.8651	2.5	stimuli/Faces/JWfemale79-4neutral.bmp		1.0412	FA
349.4842	2.5	stimuli/Faces/EMWfemale30neutral.bmp		2.0570	CR
