onset	duration	face	response	response_time	trial_type
1.4518	2.5	stimuli/Faces/EMWmale40neutral.bmp		1.2338	Subsequent_Hit
4.6535	2.5	stimuli/Faces/TMBfemale40neutral.bmp		0.6632	Subsequent_Hit
8.6395	2.5	stimuli/Faces/TSFBfemale70-2neutral.bmp		1.2592	Subsequent_Hit
12.3419	2.5	stimuli/Faces/TMBmale21neutral.bmp		1.2527	Subsequent_Hit
15.8447	2.5	stimuli/Faces/JWmale80neutral.bmp		1.7490	Subsequent_Hit
19.7142	2.5	stimuli/Faces/TMWmale43neutral.bmp	NaN	NaN	Subsequent_Miss
23.3503	2.5	stimuli/Faces/JWfemale69-2neutral.bmp		0.8315	Subsequent_Miss
27.3196	2.5	stimuli/Faces/TMBfemale57neutral.bmp		0.9470	Subsequent_Miss
30.4385	2.5	stimuli/Faces/TSFHfemale64neutral.bmp		1.7090	Subsequent_Hit
33.7073	2.5	stimuli/Faces/JWmale71neutral.bmp		2.0071	Subsequent_Hit
37.7106	2.5	stimuli/Faces/TMWfemale43neutral.bmp		1.0620	Subsequent_Hit
41.0961	2.5	stimuli/Faces/EMImale23-4neutral.bmp		1.1955	Subsequent_Hit
44.7655	2.5	stimuli/Faces/EMWmale52neutral.bmp		1.0671	Subsequent_Hit
47.9676	2.5	stimuli/Faces/TSFWmale46neutral.bmp		1.8720	Subsequent_Hit
51.0200	2.5	stimuli/Faces/EMImale24-4neutral.bmp		1.0157	Subsequent_Hit
54.5391	2.5	stimuli/Faces/TSFWmale57neutral.bmp		1.0757	Subsequent_Hit
58.0088	2.5	stimuli/Faces/TMWmale30neutral.bmp		1.4387	Subsequent_Hit
61.7611	2.5	stimuli/Faces/JWfemale70-4neutral.bmp		1.9145	Subsequent_Hit
65.1300	2.5	stimuli/Faces/TSFHmale65neutral.bmp		1.0606	Subsequent_Hit
68.4660	2.5	stimuli/Faces/TMBfemale33neutral.bmp		0.6526	Subsequent_Hit
71.6181	2.5	stimuli/Faces/TSFWmale74neutral.bmp		1.2976	Subsequent_Hit
74.8537	2.5	stimuli/Faces/TSFWmale54neutral.bmp		2.0970	Subsequent_Hit
78.6405	2.5	stimuli/Faces/JWfemale44neutral.bmp		1.6522	Subsequent_Hit
81.7587	2.5	stimuli/Faces/TSFWmale42neutral.bmp		1.2328	Subsequent_Hit
84.7939	2.5	stimuli/Faces/JWfemale50neutral.bmp		1.4746	Subsequent_Hit
88.4811	2.5	stimuli/Faces/TMWmale37-2neutral.bmp		1.9214	Subsequent_Hit
91.8826	2.5	stimuli/Faces/TSFBmale50neutral.bmp		1.6201	Subsequent_Hit
95.1016	2.5	stimuli/Faces/TMWmale22-3neutral.bmp		1.2281	Subsequent_Hit
98.8544	2.5	stimuli/Faces/EMBmale20neutral.bmp		1.3812	Subsequent_Hit
101.9566	2.5	stimuli/Faces/JWfemale65-2neutral.bmp		1.1869	Subsequent_Miss
105.6760	2.5	stimuli/Faces/EMBfemale21-4neutral.bmp		1.1156	Subsequent_Hit
108.8114	2.5	stimuli/Faces/TSFWmale67-2neutral.bmp		1.2871	Subsequent_Hit
112.4140	2.5	stimuli/Faces/JWmale79neutral.bmp		1.2125	Subsequent_Miss
116.2669	2.5	stimuli/Faces/EMWmale32neutral.bmp		0.8585	Subsequent_Miss
120.1527	2.5	stimuli/Faces/EMHmale22neutral.bmp		1.5067	Subsequent_Miss
123.6395	2.5	stimuli/Faces/JWfemale76-3neutral.bmp		0.9754	Subsequent_Hit
127.4084	2.5	stimuli/Faces/JWfemale48neutral.bmp		1.5621	Subsequent_Miss
130.9106	2.5	stimuli/Faces/JWfemale71-2neutral.bmp		0.7310	Subsequent_Miss
133.9796	2.5	stimuli/Faces/JWfemale71-5neutral.bmp		0.9761	Subsequent_Hit
137.9830	2.5	stimuli/Faces/TSFWmale69neutral.bmp		1.6157	Subsequent_Hit
141.2347	2.5	stimuli/Faces/TSFBfemale78-2neutral.bmp		0.5930	Subsequent_Hit
144.4872	2.5	stimuli/Faces/EMBfemale33neutral.bmp		1.7053	Subsequent_Hit
147.8062	2.5	stimuli/Faces/JWfemale67-4neutral.bmp		1.9635	Subsequent_Hit
151.5414	2.5	stimuli/Faces/EMWmale20neutral.bmp		1.1925	Subsequent_Hit
155.1284	2.5	stimuli/Faces/TSFWmale37neutral.bmp		1.4862	Subsequent_Hit
158.6639	2.5	stimuli/Faces/TSFWmale63neutral.bmp		1.9978	Subsequent_Miss
162.1831	2.5	stimuli/Faces/TMWfemale40neutral.bmp		1.0025	Subsequent_Hit
166.0191	2.5	stimuli/Faces/TSFWmale68-2neutral.bmp		1.1855	Subsequent_Hit
169.2045	2.5	stimuli/Faces/EMBfemale22neutral.bmp		1.6890	Subsequent_Hit
172.6238	2.5	stimuli/Faces/TSFBfemale74-2neutral.bmp		0.9145	Subsequent_Hit
176.1939	2.5	stimuli/Faces/TSFBfemale62neutral.bmp		1.2165	Subsequent_Hit
180.0961	2.5	stimuli/Faces/TMBmale18neutral.bmp		0.9333	Subsequent_Hit
183.7153	2.5	stimuli/Faces/EMWmale19neutral.bmp		1.3092	Subsequent_Miss
186.8174	2.5	stimuli/Faces/EMBfemale20-2neutral.bmp		1.0022	Subsequent_Hit
189.8869	2.5	stimuli/Faces/EMIfemale25neutral.bmp		1.3735	Subsequent_Hit
193.0385	2.5	stimuli/Faces/TMWmale34-3neutral.bmp		1.4439	Subsequent_Hit
196.3243	2.5	stimuli/Faces/JWmale88neutral.bmp		1.1383	Subsequent_Hit
199.8765	2.5	stimuli/Faces/JWmale81-2neutral.bmp		1.0499	Subsequent_Hit
203.0459	2.5	stimuli/Faces/TSFWmale88neutral.bmp		1.0080	Subsequent_Hit
206.8486	2.5	stimuli/Faces/TSFBfemale54neutral.bmp		0.8699	Subsequent_Miss
210.2509	2.5	stimuli/Faces/EMBfemale20neutral.bmp		1.6836	Subsequent_Hit
213.9035	2.5	stimuli/Faces/JWmale69-2neutral.bmp		1.2069	Subsequent_Hit
217.8230	2.5	stimuli/Faces/JWmale73neutral.bmp		1.4286	Subsequent_Hit
221.6928	2.5	stimuli/Faces/JWfemale68-2neutral.bmp		0.8686	Subsequent_Miss
225.6287	2.5	stimuli/Faces/JWmale89neutral.bmp		1.3277	Subsequent_Hit
229.2480	2.5	stimuli/Faces/TMWfemale31neutral.bmp		1.2605	Subsequent_Hit
232.6838	2.5	stimuli/Faces/TMWmale71neutral.bmp		0.9648	Subsequent_Hit
236.4528	2.5	stimuli/Faces/EMBfemale25neutral.bmp		0.8916	Subsequent_Hit
239.7554	2.5	stimuli/Faces/TSFWmale79-3neutral.bmp		1.0669	Subsequent_Hit
243.2079	2.5	stimuli/Faces/TMWmale34-2neutral.bmp		1.3054	Subsequent_Hit
246.5608	2.5	stimuli/Faces/JWfemale60neutral.bmp		0.9696	Subsequent_Miss
249.8297	2.5	stimuli/Faces/JWfemale82-2neutral.bmp		1.0560	Subsequent_Hit
253.6320	2.5	stimuli/Faces/EMBfemale21-2neutral.bmp		2.3775	Subsequent_Miss
257.0011	2.5	stimuli/Faces/EMWfemale24-2neutral.bmp		1.4023	Subsequent_Miss
260.9207	2.5	stimuli/Faces/EMWmale19-3neutral.bmp		0.7397	Subsequent_Hit
264.5564	2.5	stimuli/Faces/JWfemale79neutral.bmp		0.6630	Subsequent_Hit
267.9091	2.5	stimuli/Faces/EMWfemale21-5neutral.bmp		2.3034	Subsequent_Hit
271.3613	2.5	stimuli/Faces/TMBfemale37neutral.bmp		0.6441	Subsequent_Hit
274.8306	2.5	stimuli/Faces/TMBmale41neutral.bmp		1.9667	Subsequent_Hit
277.9159	2.5	stimuli/Faces/TMWmale33neutral.bmp		0.8096	Subsequent_Hit
281.7357	2.5	stimuli/Faces/TMWmale19neutral.bmp	NaN	NaN	Subsequent_NoResp
284.7879	2.5	stimuli/Faces/JWfemale86-2neutral.bmp		0.9185	Subsequent_Hit
288.0906	2.5	stimuli/Faces/TSFWfemale52-2neutral.bmp		1.1339	Subsequent_Miss
291.6427	2.5	stimuli/Faces/JWfemale78neutral.bmp		1.1566	Subsequent_Hit
294.8123	2.5	stimuli/Faces/JWfemale73-2neutral.bmp		1.0280	Subsequent_Hit
298.5314	2.5	stimuli/Faces/JWfemale77neutral.bmp		0.8069	Subsequent_Hit
302.2002	2.5	stimuli/Faces/TMBmale44neutral.bmp		0.8813	Subsequent_Hit
306.1028	2.5	stimuli/Faces/JWfemale37neutral.bmp		1.0920	Subsequent_Miss
310.0393	2.5	stimuli/Faces/TSFBfemale65-3neutral.bmp		0.9482	Subsequent_Hit
313.6418	2.5	stimuli/Faces/TMBmale28neutral.bmp		2.2591	Subsequent_Miss
316.8442	2.5	stimuli/Faces/JWfemale78-6neutral.bmp		0.6744	Subsequent_Hit
320.2637	2.5	stimuli/Faces/EMImale23-6neutral.bmp		2.1420	Subsequent_Hit
324.2162	2.5	stimuli/Faces/JWmale86neutral.bmp		1.7671	Subsequent_Hit
328.0855	2.5	stimuli/Faces/EMBfemale22-3neutral.bmp		1.7651	Subsequent_Hit
331.6547	2.5	stimuli/Faces/TMWmale41neutral.bmp		2.3761	Subsequent_Hit
335.3573	2.5	stimuli/Faces/TSFWmale71neutral.bmp		0.8729	Subsequent_Hit
338.6763	2.5	stimuli/Faces/JWfemale63-3neutral.bmp		1.2281	Subsequent_Miss
342.6962	2.5	stimuli/Faces/JWfemale72-2neutral.bmp		0.7203	Subsequent_Hit
345.7156	2.5	stimuli/Faces/JWfemale64-3neutral.bmp		0.7987	Subsequent_Hit
349.5341	2.5	stimuli/Faces/TMWmale45neutral.bmp		0.9232	Subsequent_Miss
