onset	duration	face	response	response_time	trial_type
1.1176	2.5	stimuli/Faces/EMBfemale22-2neutral.bmp		2.3096	Subsequent_NoResp
4.3193	2.5	stimuli/Faces/JWmale89neutral.bmp		0.9559	Subsequent_Hit
8.0895	2.5	stimuli/Faces/TMWmale22-3neutral.bmp		1.7058	Subsequent_Hit
11.6922	2.5	stimuli/Faces/JWfemale72-2neutral.bmp		1.4462	Subsequent_NoResp
15.0944	2.5	stimuli/Faces/EMBfemale22-3neutral.bmp	NaN	NaN	Subsequent_NoResp
18.2634	2.5	stimuli/Faces/TMWfemale36neutral.bmp		1.6096	Subsequent_NoResp
21.7155	2.5	stimuli/Faces/JWfemale78neutral.bmp		1.1768	Subsequent_NoResp
25.4852	2.5	stimuli/Faces/EMWfemale34neutral.bmp		1.0251	Subsequent_Miss
28.7217	2.5	stimuli/Faces/TSFAmale68neutral.bmp		1.6033	Subsequent_Hit
32.7428	2.5	stimuli/Faces/EMBfemale25neutral.bmp		0.9094	Subsequent_Hit
36.7107	2.5	stimuli/Faces/JWfemale70-4neutral.bmp		1.1884	Subsequent_Miss
40.5978	2.5	stimuli/Faces/TSFBfemale65-2neutral.bmp		0.9613	Subsequent_Miss
44.4155	2.5	stimuli/Faces/EMBmale55neutral.bmp		1.0256	Subsequent_Miss
48.3176	2.5	stimuli/Faces/EMBfemale26neutral.bmp		2.2739	Subsequent_Hit
51.7885	2.5	stimuli/Faces/TSFBfemale63-2neutral.bmp		1.0618	Subsequent_Hit
55.1732	2.5	stimuli/Faces/JWfemale78-6neutral.bmp		1.8942	Subsequent_Hit
58.8764	2.5	stimuli/Faces/TSFWmale69neutral.bmp		1.6687	Subsequent_Miss
62.5792	2.5	stimuli/Faces/EMWmale33neutral.bmp		1.7878	Subsequent_Hit
66.1977	2.5	stimuli/Faces/JWmale71neutral.bmp		1.1076	Subsequent_Hit
70.0008	2.5	stimuli/Faces/TMWmale34-2neutral.bmp		1.0365	Subsequent_Miss
73.7536	2.5	stimuli/Faces/TMWmale32neutral.bmp		0.9276	Subsequent_Miss
77.2893	2.5	stimuli/Faces/JWfemale48neutral.bmp		1.2490	Subsequent_Hit
80.6600	2.5	stimuli/Faces/TSFBfemale78-2neutral.bmp		1.1932	Subsequent_Hit
84.5130	2.5	stimuli/Faces/JWmale88neutral.bmp		1.4133	Subsequent_Hit
87.8300	2.5	stimuli/Faces/EMImale23-6neutral.bmp		1.1785	Subsequent_Miss
91.0827	2.5	stimuli/Faces/TSFWmale75-3neutral.bmp		1.4166	Subsequent_Miss
94.4699	2.5	stimuli/Faces/TSFWmale54neutral.bmp		1.2423	Subsequent_Hit
97.9877	2.5	stimuli/Faces/TMWmale45neutral.bmp		1.0564	Subsequent_Hit
101.7734	2.5	stimuli/Faces/JWfemale79neutral.bmp		1.8229	Subsequent_Miss
105.3271	2.5	stimuli/Faces/EMHmale22neutral.bmp		2.1471	Subsequent_Miss
109.2629	2.5	stimuli/Faces/JWfemale39neutral.bmp		0.8463	Subsequent_Hit
112.6661	2.5	stimuli/Faces/TSFWmale67-2neutral.bmp		1.1649	Subsequent_Miss
116.6507	2.5	stimuli/Faces/JWfemale68-2neutral.bmp		1.1657	Subsequent_Miss
120.3864	2.5	stimuli/Faces/JWfemale74neutral.bmp		1.6148	Subsequent_Hit
123.8061	2.5	stimuli/Faces/TMBmale30neutral.bmp	NaN	NaN	Subsequent_Hit
127.1420	2.5	stimuli/Faces/JWfemale76-4neutral.bmp		1.1092	Subsequent_Hit
131.0947	2.5	stimuli/Faces/TMWmale34-4neutral.bmp		1.2045	Subsequent_Hit
134.5636	2.5	stimuli/Faces/JWmale73neutral.bmp		1.5805	Subsequent_NoResp
138.2495	2.5	stimuli/Faces/TMWmale43neutral.bmp		0.9249	Subsequent_Miss
141.4018	2.5	stimuli/Faces/EMWmale52neutral.bmp		1.0725	Subsequent_Miss
144.5039	2.5	stimuli/Faces/JWfemale66neutral.bmp		1.3702	Subsequent_NoResp
148.3394	2.5	stimuli/Faces/EMWfemale21-3neutral.bmp		1.2918	Subsequent_Hit
151.4090	2.5	stimuli/Faces/TSFWmale63neutral.bmp		0.7801	Subsequent_NoResp
154.5119	2.5	stimuli/Faces/Wmale_55-2.bmp		1.3661	Subsequent_Hit
157.6808	2.5	stimuli/Faces/TMBmale18neutral.bmp		1.0204	Subsequent_Hit
161.5511	2.5	stimuli/Faces/JWfemale82-2neutral.bmp		1.9641	Subsequent_Miss
164.8685	2.5	stimuli/Faces/TSFWmale79-3neutral.bmp		0.8445	Subsequent_Miss
167.9884	2.5	stimuli/Faces/TSFWmale71-4neutral.bmp		0.9587	Subsequent_Hit
171.8571	2.5	stimuli/Faces/JWmale69-2neutral.bmp		1.7041	Subsequent_Miss
175.2094	2.5	stimuli/Faces/EMBfemale21-3neutral.bmp		1.0246	Subsequent_Hit
178.4786	2.5	stimuli/Faces/TMBmale21-3neutral.bmp		1.1715	Subsequent_Hit
182.2142	2.5	stimuli/Faces/EMIfemale25neutral.bmp		1.1869	Subsequent_Hit
186.1839	2.5	stimuli/Faces/TMWmale34-3neutral.bmp		1.0281	Subsequent_Miss
189.4049	2.5	stimuli/Faces/JWmale83-2neutral.bmp		1.8173	Subsequent_Miss
192.5218	2.5	stimuli/Faces/TSFBmale50neutral.bmp		1.2093	Subsequent_NoResp
195.7084	2.5	stimuli/Faces/EMWmale19neutral.bmp		1.0396	Subsequent_Miss
199.2123	2.5	stimuli/Faces/TSFWmale88neutral.bmp		1.2949	Subsequent_Hit
202.8142	2.5	stimuli/Faces/JWmale70neutral.bmp		0.8189	Subsequent_Miss
206.4819	2.5	stimuli/Faces/EMBfemale20neutral.bmp		1.0131	Subsequent_Miss
209.6006	2.5	stimuli/Faces/EMBfemale29neutral.bmp		1.2525	Subsequent_Miss
213.5043	2.5	stimuli/Faces/EMWfemale22neutral.bmp		1.1469	Subsequent_Miss
216.9394	2.5	stimuli/Faces/EMBfemale49neutral.bmp		1.2728	Subsequent_Miss
220.0082	2.5	stimuli/Faces/TMBfemale40neutral.bmp		1.5960	Subsequent_Hit
223.6108	2.5	stimuli/Faces/TMBfemale57neutral.bmp		1.1884	Subsequent_Hit
227.0491	2.5	stimuli/Faces/EMWmale20neutral.bmp		1.2797	Subsequent_Hit
230.0989	2.5	stimuli/Faces/JWmale80neutral.bmp		1.6331	Subsequent_Hit
233.8184	2.5	stimuli/Faces/TSFBfemale67neutral.bmp		1.3066	Subsequent_Miss
237.3374	2.5	stimuli/Faces/TMBmale24neutral.bmp		1.3807	Subsequent_Hit
240.6233	2.5	stimuli/Faces/TMWfemale37neutral.bmp		1.6638	Subsequent_Hit
243.7752	2.5	stimuli/Faces/JWfemale70-2neutral.bmp		1.6928	Subsequent_Hit
247.5954	2.5	stimuli/Faces/EMBmale20neutral.bmp		0.9978	Subsequent_NoResp
250.9497	2.5	stimuli/Faces/JWfemale64-3neutral.bmp		1.9534	Subsequent_Miss
254.6003	2.5	stimuli/Faces/TMBmale21neutral.bmp	NaN	NaN	Subsequent_NoResp
258.0188	2.5	stimuli/Faces/EMBmale26neutral.bmp		1.0163	Subsequent_Miss
261.5713	2.5	stimuli/Faces/TSFWmale74neutral.bmp		1.5448	Subsequent_Hit
265.0739	2.5	stimuli/Faces/JWfemale65-4neutral.bmp		0.9881	Subsequent_Miss
269.0767	2.5	stimuli/Faces/TSFWmale61neutral.bmp		0.9563	Subsequent_Miss
272.6464	2.5	stimuli/Faces/TMWfemale40neutral.bmp		1.2138	Subsequent_Miss
275.9153	2.5	stimuli/Faces/EMImale24-4neutral.bmp		1.3467	Subsequent_Hit
279.5856	2.5	stimuli/Faces/TSFBfemale50neutral.bmp		1.4394	Subsequent_Hit
283.2204	2.5	stimuli/Faces/TSFBfemale65-3neutral.bmp		1.8408	Subsequent_Miss
286.7068	2.5	stimuli/Faces/JBmale68neutral.bmp		1.1384	Subsequent_Miss
290.2750	2.5	stimuli/Faces/Wmale_50.bmp		1.1961	Subsequent_Hit
294.0947	2.5	stimuli/Faces/JWfemale74-2neutral.bmp		1.2686	Subsequent_Miss
297.3156	2.5	stimuli/Faces/JWfemale63-3neutral.bmp		1.3365	Subsequent_Hit
300.3318	2.5	stimuli/Faces/JWmale38neutral.bmp		1.2755	Subsequent_Miss
304.0354	2.5	stimuli/Faces/JWmale79neutral.bmp		1.5476	Subsequent_Miss
308.0397	2.5	stimuli/Faces/TMWmale71neutral.bmp		1.1454	Subsequent_Miss
311.3405	2.5	stimuli/Faces/EMWfemale22-3neutral.bmp		1.1546	Subsequent_Hit
314.3924	2.5	stimuli/Faces/JWmale65neutral.bmp		0.8905	Subsequent_Miss
318.3120	2.5	stimuli/Faces/JWfemale65-2neutral.bmp		1.8080	Subsequent_Miss
321.4978	2.5	stimuli/Faces/TSFWfemale34neutral.bmp		1.4303	Subsequent_Hit
324.7344	2.5	stimuli/Faces/JWfemale44neutral.bmp		1.4757	Subsequent_Miss
328.6547	2.5	stimuli/Faces/JWfemale86-2neutral.bmp		1.1024	Subsequent_Hit
332.6555	2.5	stimuli/Faces/TMBfemale33neutral.bmp		1.3356	Subsequent_Hit
335.6928	2.5	stimuli/Faces/EMWmale19-3neutral.bmp	NaN	NaN	Subsequent_Hit
339.3454	2.5	stimuli/Faces/TMWfemale35neutral.bmp		1.0906	Subsequent_Hit
342.6474	2.5	stimuli/Faces/TSFBfemale63neutral.bmp		0.8398	Subsequent_Hit
346.4489	2.5	stimuli/Faces/JWmale83neutral.bmp		0.8622	Subsequent_Miss
349.5686	2.5	stimuli/Faces/Wmale_55.bmp		1.9324	Subsequent_Miss
