onset	duration	face	response	response_time	trial_type
0.9319	2.5	stimuli/Faces/JWfemale80-4neutral.bmp		1.7838	Subsequent_Hit
4.0176	2.5	stimuli/Faces/Wmale_55-3.bmp		1.4247	Subsequent_Hit
7.3199	2.5	stimuli/Faces/JWfemale70-4neutral.bmp		2.3120	Subsequent_Hit
10.6893	2.5	stimuli/Faces/TSFWmale54neutral.bmp		1.5419	Subsequent_Hit
13.8913	2.5	stimuli/Faces/JWfemale73-2neutral.bmp		2.1761	Subsequent_Hit
17.6940	2.5	stimuli/Faces/Wmale_50.bmp		0.8299	Subsequent_Hit
20.8796	2.5	stimuli/Faces/JWfemale70-2neutral.bmp		2.2383	Subsequent_Miss
24.6651	2.5	stimuli/Faces/EMWfemale34neutral.bmp		1.7310	Subsequent_Hit
28.2016	2.5	stimuli/Faces/EMWfemale18-2neutral.bmp		1.4945	Subsequent_Hit
31.6041	2.5	stimuli/Faces/EMImale23-4neutral.bmp		1.4830	Subsequent_Hit
35.5243	2.5	stimuli/Faces/TSFHmale65neutral.bmp		1.8976	Subsequent_Hit
38.9435	2.5	stimuli/Faces/EMWfemale21-3neutral.bmp		1.7515	Subsequent_NoResp
42.8954	2.5	stimuli/Faces/TSFBfemale65-3neutral.bmp		1.1538	Subsequent_Hit
46.5981	2.5	stimuli/Faces/EMBfemale21-4neutral.bmp		1.6470	Subsequent_Hit
50.4008	2.5	stimuli/Faces/EMWmale32neutral.bmp		1.3872	Subsequent_Hit
53.4527	2.5	stimuli/Faces/JWfemale71-2neutral.bmp		1.5742	Subsequent_Miss
56.9055	2.5	stimuli/Faces/TMWmale34-4neutral.bmp		1.0284	Subsequent_Miss
60.2413	2.5	stimuli/Faces/JWmale89neutral.bmp		1.3617	Subsequent_Hit
63.9105	2.5	stimuli/Faces/JWfemale76-3neutral.bmp		1.6063	Subsequent_Miss
67.0302	2.5	stimuli/Faces/TMWfemale43neutral.bmp		1.6836	Subsequent_Hit
70.8656	2.5	stimuli/Faces/EMBfemale21-2neutral.bmp		1.2324	Subsequent_Hit
74.7516	2.5	stimuli/Faces/EMBfemale22-2neutral.bmp		2.2634	Subsequent_Hit
77.9039	2.5	stimuli/Faces/TSFWmale88neutral.bmp		1.1360	Subsequent_Miss
81.5232	2.5	stimuli/Faces/TMWmale71neutral.bmp		2.4046	Subsequent_Hit
85.5260	2.5	stimuli/Faces/TMBmale21-3neutral.bmp		1.7897	Subsequent_Hit
89.4957	2.5	stimuli/Faces/EMWfemale25neutral.bmp		1.0762	Subsequent_Miss
93.0811	2.5	stimuli/Faces/JWmale88neutral.bmp		1.3109	Subsequent_Hit
96.7842	2.5	stimuli/Faces/EMBfemale20neutral.bmp		1.0867	Subsequent_Hit
100.0532	2.5	stimuli/Faces/JWfemale72-2neutral.bmp		1.2567	Subsequent_Hit
103.1220	2.5	stimuli/Faces/EMWmale19neutral.bmp		1.3068	Subsequent_Hit
106.2910	2.5	stimuli/Faces/TMWmale45neutral.bmp	NaN	NaN	Subsequent_Miss
109.8436	2.5	stimuli/Faces/EMIfemale19neutral.bmp		1.6465	Subsequent_Hit
113.3628	2.5	stimuli/Faces/EMWfemale20-2neutral.bmp	NaN	NaN	Subsequent_Miss
116.4983	2.5	stimuli/Faces/TMWfemale40neutral.bmp		1.5025	Subsequent_Hit
120.2508	2.5	stimuli/Faces/JWfemale78-6neutral.bmp		1.7472	Subsequent_Miss
123.4700	2.5	stimuli/Faces/EMHmale22neutral.bmp		1.8549	Subsequent_Hit
126.9058	2.5	stimuli/Faces/TMBfemale57neutral.bmp		1.1171	Subsequent_Miss
130.0747	2.5	stimuli/Faces/TMWmale37-2neutral.bmp		2.0704	Subsequent_Miss
133.5105	2.5	stimuli/Faces/TSFWmale37neutral.bmp		0.9853	Subsequent_Hit
136.8296	2.5	stimuli/Faces/TSFWmale46neutral.bmp		1.2794	Subsequent_Miss
139.9485	2.5	stimuli/Faces/EMWmale33neutral.bmp		1.1275	Subsequent_Hit
143.4677	2.5	stimuli/Faces/EMWmale20neutral.bmp		0.9483	Subsequent_Miss
146.8535	2.5	stimuli/Faces/TSFWmale77neutral.bmp		1.5236	Subsequent_Hit
150.0058	2.5	stimuli/Faces/JWfemale60neutral.bmp		1.4603	Subsequent_Hit
153.1246	2.5	stimuli/Faces/EMBfemale25neutral.bmp		2.3293	Subsequent_Hit
156.1434	2.5	stimuli/Faces/TMWmale37neutral.bmp		2.0565	Subsequent_Miss
159.9629	2.5	stimuli/Faces/TSFWmale66-2neutral.bmp		2.0560	Subsequent_Miss
163.4320	2.5	stimuli/Faces/TMBfemale33-2neutral.bmp	NaN	NaN	Subsequent_Miss
166.5342	2.5	stimuli/Faces/TMBfemale51neutral.bmp		0.9055	Subsequent_Miss
170.4036	2.5	stimuli/Faces/TSFBfemale78-2neutral.bmp		0.9012	Subsequent_Miss
174.3065	2.5	stimuli/Faces/JWfemale74neutral.bmp		0.8704	Subsequent_Miss
177.9098	2.5	stimuli/Faces/TMWmale20-4neutral.bmp	NaN	NaN	Subsequent_Miss
181.5951	2.5	stimuli/Faces/JWfemale78-3neutral.bmp		0.7776	Subsequent_Hit
185.1643	2.5	stimuli/Faces/JWfemale50neutral.bmp		1.0355	Subsequent_Miss
188.5334	2.5	stimuli/Faces/JWfemale83neutral.bmp		0.7796	Subsequent_Miss
192.1693	2.5	stimuli/Faces/TMBmale49neutral.bmp		1.3274	Subsequent_Hit
195.6218	2.5	stimuli/Faces/EMWfemale22neutral.bmp		1.1290	Subsequent_Hit
199.2409	2.5	stimuli/Faces/TSFBfemale63neutral.bmp		1.7870	Subsequent_Hit
202.5940	2.5	stimuli/Faces/JBmale68neutral.bmp		1.4567	Subsequent_Miss
206.4963	2.5	stimuli/Faces/TSFWfemale52-2neutral.bmp	NaN	NaN	Subsequent_Miss
210.1489	2.5	stimuli/Faces/JWmale86neutral.bmp		0.6470	Subsequent_Hit
213.4678	2.5	stimuli/Faces/EMWmale40neutral.bmp		1.2369	Subsequent_Hit
216.5033	2.5	stimuli/Faces/JWmale66neutral.bmp		1.2185	Subsequent_Hit
219.5724	2.5	stimuli/Faces/JWfemale65-6neutral.bmp		1.6475	Subsequent_Hit
223.4250	2.5	stimuli/Faces/JWfemale48neutral.bmp		2.2319	Subsequent_Miss
226.6609	2.5	stimuli/Faces/TMWfemale35neutral.bmp		1.3099	Subsequent_Miss
230.3800	2.5	stimuli/Faces/EMIfemale25neutral.bmp		1.8649	Subsequent_Hit
234.2996	2.5	stimuli/Faces/TMWmale30neutral.bmp		0.9391	Subsequent_Hit
238.0689	2.5	stimuli/Faces/TSFBfemale67neutral.bmp		1.6000	Subsequent_Miss
241.3381	2.5	stimuli/Faces/TMBmale28neutral.bmp		1.6339	Subsequent_Hit
245.1907	2.5	stimuli/Faces/TMBmale39neutral.bmp		0.9750	Subsequent_Hit
249.2102	2.5	stimuli/Faces/JWmale69-2neutral.bmp		1.7065	Subsequent_Miss
252.9795	2.5	stimuli/Faces/TMBfemale33neutral.bmp		1.6532	Subsequent_Miss
256.9658	2.5	stimuli/Faces/TMWfemale49-2neutral.bmp		1.1121	Subsequent_Miss
260.6678	2.5	stimuli/Faces/Wmale_55-2.bmp		1.6000	Subsequent_Hit
263.9041	2.5	stimuli/Faces/TMBmale41neutral.bmp		1.5438	Subsequent_Hit
267.1564	2.5	stimuli/Faces/JWfemale65-4neutral.bmp		2.0902	Subsequent_Hit
270.4759	2.5	stimuli/Faces/TMWmale43neutral.bmp	NaN	NaN	Subsequent_Miss
273.6778	2.5	stimuli/Faces/EMBmale55neutral.bmp		0.8388	Subsequent_Miss
277.4146	2.5	stimuli/Faces/TMWfemale31neutral.bmp		2.0032	Subsequent_Hit
281.1999	2.5	stimuli/Faces/JWmale83-2neutral.bmp		1.0690	Subsequent_Miss
284.7027	2.5	stimuli/Faces/JWfemale79-4neutral.bmp		1.2880	Subsequent_Miss
288.2216	2.5	stimuli/Faces/EMImale25-2neutral.bmp		1.8181	Subsequent_Hit
291.8908	2.5	stimuli/Faces/EMImale21-2neutral.bmp		1.1499	Subsequent_Miss
295.3775	2.5	stimuli/Faces/JWfemale37neutral.bmp		1.0533	Subsequent_Hit
298.9800	2.5	stimuli/Faces/JWfemale76-4neutral.bmp		1.1547	Subsequent_Miss
302.4818	2.5	stimuli/Faces/EMWfemale30neutral.bmp		2.2190	Subsequent_Hit
305.7845	2.5	stimuli/Faces/TSFBmale77neutral.bmp		1.6824	Subsequent_Miss
309.5368	2.5	stimuli/Faces/TMHmale18neutral.bmp		2.1264	Subsequent_Miss
313.4082	2.5	stimuli/Faces/TSFWmale71-4neutral.bmp		0.6826	Subsequent_Miss
317.3592	2.5	stimuli/Faces/WBfemale47neutral.bmp		0.9615	Subsequent_Hit
320.4112	2.5	stimuli/Faces/JWmale71neutral.bmp		0.8936	Subsequent_Hit
323.8805	2.5	stimuli/Faces/EMImale23-2neutral.bmp		1.1883	Subsequent_Miss
327.8167	2.5	stimuli/Faces/EMWmale52neutral.bmp		1.9143	Subsequent_Miss
330.9357	2.5	stimuli/Faces/TSFBfemale70-2neutral.bmp		1.9441	Subsequent_Hit
334.8716	2.5	stimuli/Faces/TMBmale21neutral.bmp		1.7163	Subsequent_Hit
338.9080	2.5	stimuli/Faces/TSFBfemale54neutral.bmp		1.2018	Subsequent_Miss
342.4438	2.5	stimuli/Faces/JWfemale65-2neutral.bmp		1.4640	Subsequent_Miss
345.8303	2.5	stimuli/Faces/JWmale67neutral.bmp	NaN	NaN	Subsequent_Miss
349.5489	2.5	stimuli/Faces/WBmale31neutral.bmp		0.6698	Subsequent_Miss
