onset	duration	face	response	response_time	trial_type
1.3169	2.5	stimuli/Faces/JWfemale77-4neutral.bmp		1.6523	Hit
4.9878	2.5	stimuli/Faces/EMImale23-2neutral.bmp		0.9532	Hit
8.2564	2.5	stimuli/Faces/JWfemale78neutral.bmp		0.8617	FA
11.4414	2.5	stimuli/Faces/EMImale24-2neutral.bmp		0.6150	Hit
14.7622	2.5	stimuli/Faces/JWfemale83neutral.bmp		0.7076	Hit
18.1805	2.5	stimuli/Faces/TSFBfemale65-2neutral.bmp		0.6748	Hit
21.9335	2.5	stimuli/Faces/TMWmale19neutral.bmp		1.3809	Hit
25.3030	2.5	stimuli/Faces/EMBfemale22-3neutral.bmp		1.7436	CR
28.9206	2.5	stimuli/Faces/JWmale64neutral.bmp		1.0748	FA
31.9897	2.5	stimuli/Faces/TSFBfemale63neutral.bmp		1.0275	FA
35.1584	2.5	stimuli/Faces/TMBfemale40neutral.bmp		1.8842	FA
38.9780	2.5	stimuli/Faces/TSFWmale74neutral.bmp		0.8590	FA
42.2302	2.5	stimuli/Faces/EMImale23-6neutral.bmp		0.8090	Hit
45.9176	2.5	stimuli/Faces/TMWmale37-2neutral.bmp		1.3183	Hit
49.7701	2.5	stimuli/Faces/JWmale83neutral.bmp		1.3021	Hit
53.0885	2.5	stimuli/Faces/JWfemale79-4neutral.bmp		1.7653	CR
57.0076	2.5	stimuli/Faces/EMBfemale22-2neutral.bmp		2.2700	FA
60.6440	2.5	stimuli/Faces/TMBmale30neutral.bmp		1.6441	Miss
64.4145	2.5	stimuli/Faces/JWfemale68-2neutral.bmp		1.3566	CR
68.1322	2.5	stimuli/Faces/TSFWmale70neutral.bmp		0.7975	Hit
71.5012	2.5	stimuli/Faces/EMBfemale29neutral.bmp		0.9867	Miss
74.7878	2.5	stimuli/Faces/TSFWmale71neutral.bmp		0.9874	CR
77.9403	2.5	stimuli/Faces/JWfemale69-2neutral.bmp		0.9528	Hit
81.0417	2.5	stimuli/Faces/EMWfemale25neutral.bmp		1.0688	Miss
84.1101	2.5	stimuli/Faces/WBfemale47neutral.bmp		1.0101	FA
87.5153	2.5	stimuli/Faces/JWmale86neutral.bmp		1.1062	CR
90.9825	2.5	stimuli/Faces/JWfemale71-5neutral.bmp		1.7240	Hit
94.1009	2.5	stimuli/Faces/EMBfemale21-4neutral.bmp		1.8564	CR
97.3027	2.5	stimuli/Faces/TSFWfemale34neutral.bmp		2.2971	CR
100.9229	2.5	stimuli/Faces/EMWfemale21-3neutral.bmp		0.9460	CR
104.9255	2.5	stimuli/Faces/EMBfemale21neutral.bmp		1.6354	FA
108.8114	2.5	stimuli/Faces/JWmale69-2neutral.bmp		0.9761	CR
112.6641	2.5	stimuli/Faces/TSFBfemale67neutral.bmp		0.8520	Hit
115.7687	2.5	stimuli/Faces/EMImale25neutral.bmp		0.9556	Hit
119.2686	2.5	stimuli/Faces/TSFWmale42neutral.bmp		1.1503	CR
122.4891	2.5	stimuli/Faces/EMWfemale24-2neutral.bmp		1.1456	FA
126.3921	2.5	stimuli/Faces/EMBfemale21-3neutral.bmp		1.1360	CR
130.3771	2.5	stimuli/Faces/TMBmale21neutral.bmp		0.8599	CR
133.4960	2.5	stimuli/Faces/JWfemale42neutral.bmp		2.2265	FA
137.1484	2.5	stimuli/Faces/TMBfemale33neutral.bmp		0.9585	Miss
140.3002	2.5	stimuli/Faces/JWfemale79neutral.bmp		NaN	NoResp
144.3227	2.5	stimuli/Faces/JWfemale48neutral.bmp		1.0253	Hit
148.1896	2.5	stimuli/Faces/JWmale81-2neutral.bmp		1.6631	CR
151.6254	2.5	stimuli/Faces/Wmale_65.bmp		0.6886	Hit
154.7607	2.5	stimuli/Faces/JWfemale78-6neutral.bmp		1.5974	CR
158.0463	2.5	stimuli/Faces/TSFBfemale61neutral.bmp		NaN	NoResp
161.3987	2.5	stimuli/Faces/EMWfemale21-5neutral.bmp		1.9589	Miss
164.5514	2.5	stimuli/Faces/TMWmale32neutral.bmp		0.8120	CR
167.8213	2.5	stimuli/Faces/TSFWmale67-2neutral.bmp		1.9275	CR
170.8560	2.5	stimuli/Faces/EMBfemale25neutral.bmp		1.8699	FA
174.3249	2.5	stimuli/Faces/TMBfemale41neutral.bmp		1.4800	Hit
178.2788	2.5	stimuli/Faces/TSFBfemale54neutral.bmp		0.8888	CR
181.8310	2.5	stimuli/Faces/TMBmale44neutral.bmp		1.4555	CR
185.4832	2.5	stimuli/Faces/TSFWmale57neutral.bmp		1.3630	Hit
189.5023	2.5	stimuli/Faces/EMWmale21-3neutral.bmp		1.1078	CR
192.8552	2.5	stimuli/Faces/JWmale76neutral.bmp		1.3100	CR
195.9404	2.5	stimuli/Faces/JWmale79neutral.bmp		1.6222	Hit
199.6429	2.5	stimuli/Faces/TSFBfemale63-2neutral.bmp		1.2208	Miss
203.6125	2.5	stimuli/Faces/TSFWmale37neutral.bmp		1.7804	Hit
207.0658	2.5	stimuli/Faces/TMWmale22-3neutral.bmp	NaN	1.4476	Miss
210.9679	2.5	stimuli/Faces/EMIfemale25-2neutral.bmp		1.1770	Miss
214.8885	2.5	stimuli/Faces/JWmale73neutral.bmp		2.1653	CR
218.4072	2.5	stimuli/Faces/JWfemale77-2neutral.bmp		1.3318	FA
221.6278	2.5	stimuli/Faces/TMWmale37neutral.bmp		2.0062	Hit
224.8611	2.5	stimuli/Faces/TMWfemale49-2neutral.bmp		0.7575	CR
227.9148	2.5	stimuli/Faces/JWfemale81-3neutral.bmp		1.2196	Hit
231.7508	2.5	stimuli/Faces/TMWmale33neutral.bmp		1.1686	FA
235.6869	2.5	stimuli/Faces/TSFWmale68-2neutral.bmp	NaN	1.1482	CR
239.2555	2.5	stimuli/Faces/TSFWfemale52-2neutral.bmp		1.3654	Hit
242.6567	2.5	stimuli/Faces/TMBmale18neutral.bmp		1.9071	Miss
246.1596	2.5	stimuli/Faces/JWfemale76-3neutral.bmp		1.5720	Hit
250.0291	2.5	stimuli/Faces/JWmale70neutral.bmp		1.2445	FA
253.2813	2.5	stimuli/Faces/EMWmale40neutral.bmp		1.7696	FA
256.3005	2.5	stimuli/Faces/EMWmale19neutral.bmp		1.6499	CR
260.0862	2.5	stimuli/Faces/EMBfemale26neutral.bmp		1.6103	Hit
263.5412	2.5	stimuli/Faces/TSFWmale61neutral.bmp		0.9933	Miss
267.0582	2.5	stimuli/Faces/EMImale21-2neutral.bmp		0.8929	Hit
270.3609	2.5	stimuli/Faces/TSFBfemale50neutral.bmp		1.6485	CR
273.9460	2.5	stimuli/Faces/TSFHmale65neutral.bmp		NaN	NoResp
277.7496	2.5	stimuli/Faces/WBmale31neutral.bmp		0.9538	Hit
281.5349	2.5	stimuli/Faces/TSFWmale79-3neutral.bmp		1.0311	CR
284.9394	2.5	stimuli/Faces/TMWfemale35neutral.bmp		1.4859	FA
288.4900	2.5	stimuli/Faces/TSFBmale77neutral.bmp		2.3502	Hit
292.0588	2.5	stimuli/Faces/EMWfemale18-2neutral.bmp		1.0807	CR
296.0119	2.5	stimuli/Faces/TMBmale24neutral.bmp		1.7899	Hit
299.8147	2.5	stimuli/Faces/TMWfemale34-2neutral.bmp		1.2157	Hit
303.4854	2.5	stimuli/Faces/JWfemale78-3neutral.bmp		1.3472	Hit
307.2370	2.5	stimuli/Faces/TMBmale41neutral.bmp		0.9815	Miss
310.6234	2.5	stimuli/Faces/EMWfemale22neutral.bmp		2.2665	CR
313.6766	2.5	stimuli/Faces/EMWmale33neutral.bmp		1.9488	CR
317.3937	2.5	stimuli/Faces/TMBmale49neutral.bmp		0.9460	Hit
321.3485	2.5	stimuli/Faces/TMWfemale43neutral.bmp		0.8714	CR
324.8830	2.5	stimuli/Faces/TMWfemale37neutral.bmp		1.3320	Miss
328.0871	2.5	stimuli/Faces/JWfemale64-3neutral.bmp		0.8662	FA
331.6890	2.5	stimuli/Faces/JWfemale82-2neutral.bmp		0.9970	CR
335.3899	2.5	stimuli/Faces/TMWfemale31neutral.bmp		2.0342	Miss
338.8595	2.5	stimuli/Faces/EMBmale26neutral.bmp		0.7024	CR
342.4619	2.5	stimuli/Faces/EMHmale22neutral.bmp		1.2607	Hit
345.7992	2.5	stimuli/Faces/TMWmale34-4neutral.bmp		1.1967	Hit
349.5170	2.5	stimuli/Faces/TSFBmale50neutral.bmp		1.0533	Hit
