onset	duration	face	response	response_time	trial_type
0.7674	2.5	stimuli/Faces/Wmale_55.bmp		0.9755	Subsequent_Hit
3.8363	2.5	stimuli/Faces/TMBmale28neutral.bmp		1.5498	Subsequent_Hit
7.8079	2.5	stimuli/Faces/TSFWmale37neutral.bmp		1.0141	Subsequent_Miss
11.6757	2.5	stimuli/Faces/JWmale70neutral.bmp		1.4023	Subsequent_Miss
15.6788	2.5	stimuli/Faces/EMBfemale21neutral.bmp		0.7653	Subsequent_Hit
18.8162	2.5	stimuli/Faces/EMIfemale19neutral.bmp		1.1537	Subsequent_Hit
21.9661	2.5	stimuli/Faces/JWfemale65-6neutral.bmp		1.0359	Subsequent_NoResp
25.6519	2.5	stimuli/Faces/TMWmale37-2neutral.bmp		1.2240	Subsequent_Miss
29.2045	2.5	stimuli/Faces/TMBmale44neutral.bmp		0.8345	Subsequent_Hit
32.7403	2.5	stimuli/Faces/TMWfemale37neutral.bmp		1.4129	Subsequent_Hit
36.1270	2.5	stimuli/Faces/JWmale65neutral.bmp		0.7981	Subsequent_NoResp
40.0133	2.5	stimuli/Faces/JWmale69-2neutral.bmp		1.6698	Subsequent_Hit
43.9653	2.5	stimuli/Faces/TSFBfemale54neutral.bmp		1.9197	Subsequent_Hit
47.5353	2.5	stimuli/Faces/EMWfemale18-2neutral.bmp		1.4196	Subsequent_Hit
51.0555	2.5	stimuli/Faces/TSFWmale69neutral.bmp		1.9944	Subsequent_Hit
54.2721	2.5	stimuli/Faces/TSFWmale63neutral.bmp		1.2946	Subsequent_Hit
57.8418	2.5	stimuli/Faces/TSFWfemale52-2neutral.bmp		1.1065	Subsequent_Hit
61.3131	2.5	stimuli/Faces/JWmale71neutral.bmp		1.5477	Subsequent_Hit
65.1154	2.5	stimuli/Faces/TMWfemale34-2neutral.bmp		1.3455	Subsequent_Hit
69.0171	2.5	stimuli/Faces/EMIfemale25-2neutral.bmp		1.9047	Subsequent_Hit
72.9525	2.5	stimuli/Faces/EMBfemale22-2neutral.bmp		0.7884	Subsequent_Hit
76.0544	2.5	stimuli/Faces/EMWfemale22-3neutral.bmp		2.4336	Subsequent_Hit
79.7252	2.5	stimuli/Faces/EMImale23-2neutral.bmp		0.8245	Subsequent_Hit
83.6774	2.5	stimuli/Faces/TMBmale24neutral.bmp		2.2326	Subsequent_Hit
86.8984	2.5	stimuli/Faces/TMWmale41neutral.bmp		0.8014	Subsequent_Miss
90.1477	2.5	stimuli/Faces/EMBfemale20neutral.bmp		2.2141	Subsequent_Hit
93.7527	2.5	stimuli/Faces/EMHmale22neutral.bmp		1.0112	Subsequent_Miss
97.3041	2.5	stimuli/Faces/TSFBmale77neutral.bmp		2.0526	Subsequent_Miss
100.7221	2.5	stimuli/Faces/JWfemale80-4neutral.bmp		1.5987	Subsequent_Hit
103.9079	2.5	stimuli/Faces/Wmale_50.bmp		0.8128	Subsequent_Hit
107.8793	2.5	stimuli/Faces/TMWfemale43neutral.bmp		1.1725	Subsequent_Hit
111.6141	2.5	stimuli/Faces/TMBmale49neutral.bmp		1.0086	Subsequent_Miss
114.6510	2.5	stimuli/Faces/TSFBfemale74-2neutral.bmp	NaN	NaN	Subsequent_Miss
118.3034	2.5	stimuli/Faces/TSFWmale57neutral.bmp		0.7613	Subsequent_Miss
121.8040	2.5	stimuli/Faces/TSFWmale77neutral.bmp		0.8176	Subsequent_Hit
124.8413	2.5	stimuli/Faces/JWfemale86-2neutral.bmp		1.1185	Subsequent_Hit
128.2920	2.5	stimuli/Faces/Wmale_55-3.bmp		1.8289	Subsequent_Miss
131.9613	2.5	stimuli/Faces/JWfemale78-3neutral.bmp		0.7932	Subsequent_Hit
135.8163	2.5	stimuli/Faces/JWmale83neutral.bmp		0.6795	Subsequent_Hit
139.1665	2.5	stimuli/Faces/EMImale25-2neutral.bmp		1.2840	Subsequent_Hit
142.7689	2.5	stimuli/Faces/JWfemale82-2neutral.bmp		1.4736	Subsequent_Hit
146.0879	2.5	stimuli/Faces/JBmale68neutral.bmp		2.2978	Subsequent_Hit
150.0093	2.5	stimuli/Faces/JWmale73neutral.bmp		1.1702	Subsequent_Miss
153.1768	2.5	stimuli/Faces/EMWmale20neutral.bmp		2.0790	Subsequent_Hit
156.2789	2.5	stimuli/Faces/TMWmale71neutral.bmp		0.9066	Subsequent_Hit
159.5478	2.5	stimuli/Faces/JWfemale50neutral.bmp		0.6957	Subsequent_Miss
163.4523	2.5	stimuli/Faces/EMBfemale21-3neutral.bmp		1.0212	Subsequent_Hit
167.2222	2.5	stimuli/Faces/TSFWmale79-3neutral.bmp		1.7814	Subsequent_Miss
170.8743	2.5	stimuli/Faces/TMBfemale33neutral.bmp		1.2543	Subsequent_Hit
174.6747	2.5	stimuli/Faces/WBmale31neutral.bmp		1.0270	Subsequent_Miss
178.1780	2.5	stimuli/Faces/EMImale21-2neutral.bmp		0.9457	Subsequent_Miss
182.1159	2.5	stimuli/Faces/TSFWmale68-2neutral.bmp		1.8177	Subsequent_NoResp
185.3661	2.5	stimuli/Faces/TMWmale34-3neutral.bmp		0.6267	Subsequent_Hit
189.2372	2.5	stimuli/Faces/TMWmale33neutral.bmp		0.7624	Subsequent_Miss
192.5220	2.5	stimuli/Faces/EMImale24-4neutral.bmp		0.6108	Subsequent_Hit
195.9735	2.5	stimuli/Faces/TMBfemale51neutral.bmp		0.8401	Subsequent_Miss
199.3281	2.5	stimuli/Faces/JWmale67neutral.bmp		0.6525	Subsequent_Hit
202.9459	2.5	stimuli/Faces/JWmale64neutral.bmp		1.6286	Subsequent_Hit
206.5646	2.5	stimuli/Faces/EMWfemale21-3neutral.bmp		2.0906	Subsequent_Hit
210.0530	2.5	stimuli/Faces/TMBfemale33-2neutral.bmp	NaN	NaN	Subsequent_Miss
213.8701	2.5	stimuli/Faces/TSFWmale74neutral.bmp		1.9083	Subsequent_Hit
217.0742	2.5	stimuli/Faces/TSFWmale79neutral.bmp		1.1561	Subsequent_Hit
221.0763	2.5	stimuli/Faces/EMWmale21-3neutral.bmp		1.2382	Subsequent_Hit
224.3275	2.5	stimuli/Faces/EMBfemale21-2neutral.bmp		1.1581	Subsequent_Hit
227.6464	2.5	stimuli/Faces/EMWfemale30neutral.bmp		1.5862	Subsequent_Miss
231.1166	2.5	stimuli/Faces/JWfemale73-2neutral.bmp		1.0010	Subsequent_Hit
234.2346	2.5	stimuli/Faces/JWfemale70-4neutral.bmp		0.9060	Subsequent_Hit
237.9388	2.5	stimuli/Faces/TMWfemale31neutral.bmp	NaN	NaN	Subsequent_Miss
241.5252	2.5	stimuli/Faces/TSFHmale65neutral.bmp		0.8473	Subsequent_Hit
245.2431	2.5	stimuli/Faces/TSFBmale50neutral.bmp		2.1775	Subsequent_Miss
248.6114	2.5	stimuli/Faces/TSFBfemale70-2neutral.bmp		0.5461	Subsequent_Miss
252.5979	2.5	stimuli/Faces/TMBmale21neutral.bmp		2.3155	Subsequent_Hit
256.1015	2.5	stimuli/Faces/EMWmale32neutral.bmp		0.7370	Subsequent_Miss
259.8211	2.5	stimuli/Faces/TSFWmale70neutral.bmp		0.9263	Subsequent_Hit
263.6725	2.5	stimuli/Faces/TSFBfemale67neutral.bmp		0.6918	Subsequent_Hit
266.9754	2.5	stimuli/Faces/JWfemale65-2neutral.bmp		1.6767	Subsequent_Miss
269.9937	2.5	stimuli/Faces/JWmale38neutral.bmp		1.5889	Subsequent_Hit
273.4143	2.5	stimuli/Faces/EMWfemale34neutral.bmp		1.6403	Subsequent_Hit
276.7484	2.5	stimuli/Faces/TMWmale34neutral.bmp		1.4731	Subsequent_Miss
280.5010	2.5	stimuli/Faces/JWfemale68-2neutral.bmp		0.7883	Subsequent_Miss
283.6877	2.5	stimuli/Faces/TMWfemale40neutral.bmp		1.3106	Subsequent_Hit
286.9907	2.5	stimuli/Faces/JWfemale65-4neutral.bmp		1.1167	Subsequent_Miss
290.6276	2.5	stimuli/Faces/TMBmale30neutral.bmp		1.9318	Subsequent_Miss
294.0301	2.5	stimuli/Faces/TMWfemale36neutral.bmp		0.6469	Subsequent_Hit
297.0812	2.5	stimuli/Faces/TSFBfemale65neutral.bmp		0.9263	Subsequent_Miss
300.8676	2.5	stimuli/Faces/EMBfemale26neutral.bmp		0.8896	Subsequent_Hit
303.9514	2.5	stimuli/Faces/JWmale66neutral.bmp		2.4632	Subsequent_Hit
307.3380	2.5	stimuli/Faces/JWmale83-2neutral.bmp		0.6402	Subsequent_Hit
310.4892	2.5	stimuli/Faces/JWfemale63-3neutral.bmp		0.8920	Subsequent_Hit
313.6587	2.5	stimuli/Faces/EMWmale19-3neutral.bmp		1.4525	Subsequent_Hit
317.4783	2.5	stimuli/Faces/JWfemale77-4neutral.bmp		1.0559	Subsequent_Hit
320.5797	2.5	stimuli/Faces/JWfemale71-2neutral.bmp		0.9716	Subsequent_Hit
324.4499	2.5	stimuli/Faces/JWmale81-2neutral.bmp		0.8364	Subsequent_Hit
327.8852	2.5	stimuli/Faces/TMBmale21-3neutral.bmp	NaN	NaN	Subsequent_Hit
331.9047	2.5	stimuli/Faces/JWfemale48neutral.bmp		1.3956	Subsequent_Miss
335.2757	2.5	stimuli/Faces/JWfemale39neutral.bmp		1.4505	Subsequent_Hit
339.0280	2.5	stimuli/Faces/TMBmale41neutral.bmp		1.5623	Subsequent_Hit
342.7288	2.5	stimuli/Faces/TSFBfemale63-2neutral.bmp		0.9585	Subsequent_Hit
345.7815	2.5	stimuli/Faces/JWfemale37neutral.bmp		1.1789	Subsequent_Hit
349.5357	2.5	stimuli/Faces/TMWmale19neutral.bmp		1.2936	Subsequent_Hit
