onset	duration	face	response	response_time	trial_type
0.7677	2.5	stimuli/Faces/TSFBfemale65-2neutral.bmp		1.1995	Subsequent_Hit
4.3197	2.5	stimuli/Faces/JWmale38neutral.bmp		0.7637	Subsequent_Miss
7.8722	2.5	stimuli/Faces/JWmale65neutral.bmp		1.2923	Subsequent_Miss
11.0746	2.5	stimuli/Faces/TMBfemale37neutral.bmp		1.4167	Subsequent_Hit
14.9774	2.5	stimuli/Faces/JWfemale65-2neutral.bmp		1.2548	Subsequent_Miss
18.1973	2.5	stimuli/Faces/TMWmale20-4neutral.bmp		1.7100	Subsequent_Miss
21.4995	2.5	stimuli/Faces/JWmale88neutral.bmp		1.1327	Subsequent_Hit
25.3515	2.5	stimuli/Faces/TMWmale34neutral.bmp		1.9219	Subsequent_Miss
29.1868	2.5	stimuli/Faces/EMBfemale20-2neutral.bmp		1.8276	Subsequent_Miss
33.0904	2.5	stimuli/Faces/JWfemale78-3neutral.bmp		0.9319	Subsequent_Hit
36.2092	2.5	stimuli/Faces/JWfemale80-4neutral.bmp		2.1021	Subsequent_Miss
39.3783	2.5	stimuli/Faces/TMWfemale35neutral.bmp		1.9550	Subsequent_Hit
42.9976	2.5	stimuli/Faces/EMBfemale21-2neutral.bmp		1.6788	Subsequent_Hit
46.1840	2.5	stimuli/Faces/EMBfemale26neutral.bmp		1.4041	Subsequent_Hit
49.7691	2.5	stimuli/Faces/TSFWmale88neutral.bmp		1.3884	Subsequent_Hit
53.6885	2.5	stimuli/Faces/JWfemale74-2neutral.bmp		1.0419	Subsequent_Hit
57.6418	2.5	stimuli/Faces/TSFWfemale34neutral.bmp		1.0113	Subsequent_Miss
60.7436	2.5	stimuli/Faces/JWfemale65-4neutral.bmp		1.0627	Subsequent_Miss
64.2637	2.5	stimuli/Faces/TMBmale30neutral.bmp		1.1985	Subsequent_Hit
67.6821	2.5	stimuli/Faces/JWfemale67-4neutral.bmp		0.7760	Subsequent_Hit
70.8343	2.5	stimuli/Faces/EMIfemale25-2neutral.bmp		1.1569	Subsequent_Hit
74.7876	2.5	stimuli/Faces/JWmale86neutral.bmp		1.3926	Subsequent_Hit
78.5734	2.5	stimuli/Faces/TMBmale24neutral.bmp		1.2698	Subsequent_Miss
82.1588	2.5	stimuli/Faces/TSFWmale37neutral.bmp		1.3355	Subsequent_Hit
85.5948	2.5	stimuli/Faces/EMWfemale22neutral.bmp		2.2055	Subsequent_Hit
89.3642	2.5	stimuli/Faces/TMWmale32neutral.bmp		0.9419	Subsequent_Miss
92.5000	2.5	stimuli/Faces/JWfemale69-2neutral.bmp		0.9990	Subsequent_Hit
95.9522	2.5	stimuli/Faces/TMWfemale34-2neutral.bmp		1.2970	Subsequent_Hit
99.3380	2.5	stimuli/Faces/EMBfemale21neutral.bmp		1.1260	Subsequent_NoResp
102.4734	2.5	stimuli/Faces/TMWfemale49-2neutral.bmp		1.0117	Subsequent_Hit
106.3925	2.5	stimuli/Faces/EMImale23-2neutral.bmp		1.3358	Subsequent_Hit
109.7620	2.5	stimuli/Faces/TSFAmale68neutral.bmp		1.9142	Subsequent_Hit
113.5649	2.5	stimuli/Faces/Wmale_55-3.bmp		1.2773	Subsequent_Hit
116.9178	2.5	stimuli/Faces/TMBfemale33-2neutral.bmp		1.0955	Subsequent_Miss
120.7380	2.5	stimuli/Faces/TSFWmale79neutral.bmp		2.3132	Subsequent_Hit
124.7229	2.5	stimuli/Faces/TSFWmale71neutral.bmp		1.4113	Subsequent_Hit
128.1752	2.5	stimuli/Faces/TMBmale21neutral.bmp		1.0949	Subsequent_Hit
132.0616	2.5	stimuli/Faces/JWfemale64-3neutral.bmp		0.9849	Subsequent_Miss
135.4639	2.5	stimuli/Faces/JWfemale73-2neutral.bmp		1.1324	Subsequent_Hit
138.8665	2.5	stimuli/Faces/TMBfemale41neutral.bmp		0.9308	Subsequent_Miss
142.5358	2.5	stimuli/Faces/JWmale81-2neutral.bmp		1.0503	Subsequent_Miss
146.5386	2.5	stimuli/Faces/JWfemale78neutral.bmp		0.8807	Subsequent_Miss
149.6074	2.5	stimuli/Faces/EMImale25-2neutral.bmp		0.9158	Subsequent_Miss
152.7763	2.5	stimuli/Faces/JWfemale81-3neutral.bmp		1.0158	Subsequent_Miss
156.6960	2.5	stimuli/Faces/TSFWmale75-3neutral.bmp		0.9222	Subsequent_Miss
160.2160	2.5	stimuli/Faces/WBmale31neutral.bmp		1.2313	Subsequent_Miss
163.2339	2.5	stimuli/Faces/EMImale21-2neutral.bmp		1.6503	Subsequent_Hit
167.1034	2.5	stimuli/Faces/TMBfemale51neutral.bmp		1.5458	Subsequent_Miss
170.2223	2.5	stimuli/Faces/TSFHmale65neutral.bmp		1.4040	Subsequent_Hit
173.8750	2.5	stimuli/Faces/EMBfemale22-3neutral.bmp		1.6354	Subsequent_Hit
177.5942	2.5	stimuli/Faces/TSFWmale87neutral.bmp		1.1229	Subsequent_Hit
181.0959	2.5	stimuli/Faces/JWmale70neutral.bmp		1.4365	Subsequent_Miss
184.8495	2.5	stimuli/Faces/TSFWmale67-2neutral.bmp		1.1318	Subsequent_Hit
188.8191	2.5	stimuli/Faces/TSFBfemale74-2neutral.bmp		1.0901	Subsequent_Miss
192.5059	2.5	stimuli/Faces/EMBfemale22-2neutral.bmp		1.3418	Subsequent_Hit
195.5571	2.5	stimuli/Faces/JWmale83-2neutral.bmp		1.4470	Subsequent_Hit
199.0602	2.5	stimuli/Faces/EMImale25neutral.bmp		1.2370	Subsequent_Hit
202.7298	2.5	stimuli/Faces/JWmale79neutral.bmp		1.1424	Subsequent_Hit
205.9813	2.5	stimuli/Faces/TMWmale45neutral.bmp		1.1928	Subsequent_Hit
209.9840	2.5	stimuli/Faces/TSFBfemale62neutral.bmp		1.2766	Subsequent_Hit
213.6202	2.5	stimuli/Faces/TSFWmale61neutral.bmp		1.7022	Subsequent_Miss
217.3731	2.5	stimuli/Faces/JWfemale42neutral.bmp		1.6540	Subsequent_Miss
221.0921	2.5	stimuli/Faces/TSFBfemale67neutral.bmp		1.4162	Subsequent_Hit
224.3962	2.5	stimuli/Faces/TMBfemale40neutral.bmp		1.3812	Subsequent_Miss
228.3634	2.5	stimuli/Faces/TMWmale34-4neutral.bmp		1.5147	Subsequent_Hit
231.6328	2.5	stimuli/Faces/TSFWmale77neutral.bmp		1.3592	Subsequent_Hit
235.1029	2.5	stimuli/Faces/TMWmale19neutral.bmp		1.2992	Subsequent_Hit
238.5900	2.5	stimuli/Faces/JWfemale79-4neutral.bmp		1.1773	Subsequent_Hit
242.3734	2.5	stimuli/Faces/Wmale_65.bmp		1.6516	Subsequent_Miss
245.4430	2.5	stimuli/Faces/JWfemale50neutral.bmp		1.1452	Subsequent_Miss
248.5620	2.5	stimuli/Faces/TSFWmale68-2neutral.bmp		1.0541	Subsequent_Hit
251.5641	2.5	stimuli/Faces/JWfemale78-6neutral.bmp		0.8248	Subsequent_Miss
255.1333	2.5	stimuli/Faces/EMWmale19-3neutral.bmp	NaN	NaN	Subsequent_Miss
258.3519	2.5	stimuli/Faces/TSFBfemale70-2neutral.bmp		0.9762	Subsequent_Miss
261.9215	2.5	stimuli/Faces/EMBfemale49neutral.bmp		1.1519	Subsequent_Miss
265.2072	2.5	stimuli/Faces/JWfemale48neutral.bmp		1.0781	Subsequent_Miss
268.4093	2.5	stimuli/Faces/EMWfemale25neutral.bmp		1.0517	Subsequent_Hit
272.4124	2.5	stimuli/Faces/TSFWmale54neutral.bmp		0.8958	Subsequent_Miss
276.1317	2.5	stimuli/Faces/TSFWmale42neutral.bmp		0.9516	Subsequent_Miss
279.8344	2.5	stimuli/Faces/JWfemale72-2neutral.bmp		0.9201	Subsequent_Miss
283.4537	2.5	stimuli/Faces/TSFWmale74neutral.bmp		0.9992	Subsequent_Hit
286.7560	2.5	stimuli/Faces/JWfemale68-2neutral.bmp		0.9951	Subsequent_Miss
290.3746	2.5	stimuli/Faces/EMBfemale21-3neutral.bmp		0.9805	Subsequent_Hit
293.6777	2.5	stimuli/Faces/EMBfemale33neutral.bmp		1.0107	Subsequent_Miss
297.4971	2.5	stimuli/Faces/JWfemale76-3neutral.bmp		1.0892	Subsequent_Miss
301.3498	2.5	stimuli/Faces/WBfemale47neutral.bmp		0.9382	Subsequent_Miss
305.0024	2.5	stimuli/Faces/EMBmale20neutral.bmp		1.0637	Subsequent_Hit
308.7881	2.5	stimuli/Faces/EMWmale21-3neutral.bmp		0.8780	Subsequent_Miss
312.0408	2.5	stimuli/Faces/EMWfemale20-2neutral.bmp		1.4624	Subsequent_Hit
315.2765	2.5	stimuli/Faces/EMBfemale29neutral.bmp		0.9787	Subsequent_Hit
318.9789	2.5	stimuli/Faces/JWfemale86-2neutral.bmp		1.1065	Subsequent_Miss
322.3481	2.5	stimuli/Faces/JWfemale37neutral.bmp		1.3021	Subsequent_Miss
325.4505	2.5	stimuli/Faces/EMWmale52neutral.bmp		1.0457	Subsequent_Miss
328.9364	2.5	stimuli/Faces/TSFWfemale52-2neutral.bmp		1.5027	Subsequent_Miss
332.2887	2.5	stimuli/Faces/JWmale76neutral.bmp		1.1864	Subsequent_Miss
335.7077	2.5	stimuli/Faces/EMWfemale18-2neutral.bmp		1.1535	Subsequent_Miss
338.7604	2.5	stimuli/Faces/TSFBfemale54neutral.bmp		0.9648	Subsequent_Miss
342.0957	2.5	stimuli/Faces/JWfemale60neutral.bmp		1.2064	Subsequent_Hit
345.9653	2.5	stimuli/Faces/TMBmale21-3neutral.bmp		1.4758	Subsequent_Hit
349.5018	2.5	stimuli/Faces/TMBmale41neutral.bmp		1.0955	Subsequent_Hit
