onset	duration	word	response	response_time	trial_type
0.5173	2.5	Lamp		1.3424	Subsequent_Hit
3.5861	2.5	Asparagus		1.7875	Subsequent_Hit
7.4890	2.5	Cement		1.3755	Subsequent_Hit
10.9244	2.5	Cucumber		1.0933	Subsequent_Hit
14.6274	2.5	Drum		1.8243	Subsequent_Hit
17.7799	2.5	Stew		1.1808	Subsequent_Hit
20.9318	2.5	Balloon		0.9728	Subsequent_Hit
24.6181	2.5	Umbrella		1.3266	Subsequent_Hit
28.4874	2.5	Honey		0.9014	Subsequent_Hit
32.5072	2.5	Ice		1.5975	Subsequent_Hit
36.4770	2.5	Thumb		1.2018	Subsequent_Hit
40.1127	2.5	Plum		1.5160	Subsequent_Hit
43.8322	2.5	Bean	NaN	NaN	Subsequent_Hit
47.0845	2.5	Bed		1.3181	Subsequent_Miss
51.0036	2.5	Shrimp		0.9262	Subsequent_Hit
54.8067	2.5	Car		0.9859	Subsequent_Hit
58.2259	2.5	Pea		0.9226	Subsequent_Hit
61.8280	2.5	Wig		1.4047	Subsequent_Hit
65.1153	2.5	Ceiling		1.0504	Subsequent_Hit
69.1172	2.5	Bracelet		1.1375	Subsequent_Hit
72.2528	2.5	Cherry		0.9447	Subsequent_Hit
75.4884	2.5	Pie		0.8443	Subsequent_Hit
78.9738	2.5	Skin		1.1052	Subsequent_Hit
82.6765	2.5	Milk		0.7771	Subsequent_Hit
86.0625	2.5	Onion		1.0962	Subsequent_Hit
89.5485	2.5	Rat		1.0433	Subsequent_Hit
93.5013	2.5	Tiger		1.8726	Subsequent_Hit
96.8371	2.5	Tent		0.7955	Subsequent_Hit
100.3897	2.5	Tail		1.2100	Subsequent_Hit
103.4415	2.5	Kettle		0.9230	Subsequent_Hit
106.6945	2.5	Apple		0.8922	Subsequent_Hit
110.4138	2.5	Rabbit		0.9129	Subsequent_Hit
114.2328	2.5	Coat		0.9860	Subsequent_Hit
118.1525	2.5	Mountain		1.1431	Subsequent_Hit
121.2044	2.5	Van		1.8495	Subsequent_Hit
124.9918	2.5	Sleigh		1.2669	Subsequent_Hit
128.4099	2.5	Pig		1.0759	Subsequent_Hit
131.7621	2.5	Puddle		1.2735	Subsequent_Hit
135.3314	2.5	Straw		1.1991	Subsequent_Hit
138.8507	2.5	Blood		0.9130	Subsequent_Hit
142.7871	2.5	Pill		1.2696	Subsequent_Hit
145.8892	2.5	Bag		1.3615	Subsequent_Hit
149.3582	2.5	Sheep		1.3375	Subsequent_Hit
153.2443	2.5	Carrot		1.4314	Subsequent_Hit
156.4967	2.5	Fur		1.1911	Subsequent_Hit
159.6826	2.5	Pencil		1.0882	Subsequent_Hit
163.6020	2.5	Snow		1.1118	Subsequent_Hit
167.6048	2.5	Rain		1.1220	Subsequent_Hit
171.3576	2.5	Belt		1.3021	Subsequent_Hit
174.8600	2.5	Toe		1.4859	Subsequent_Hit
178.8296	2.5	Pond		1.5200	Subsequent_Hit
182.2151	2.5	Boat		1.1006	Subsequent_Hit
186.0181	2.5	Rice		0.9106	Subsequent_Hit
190.0040	2.5	Gravy		0.9357	Subsequent_Hit
193.0730	2.5	Typewriter		1.6036	Subsequent_Hit
196.6759	2.5	Duck		1.4187	Subsequent_Hit
200.3283	2.5	Penny		1.3987	Subsequent_Hit
203.3637	2.5	Sparrow		1.5409	Subsequent_Hit
207.1334	2.5	Thread		1.4183	Subsequent_Hit
210.9689	2.5	Chair		0.9066	Subsequent_Hit
214.5052	2.5	Heart		0.7834	Subsequent_Hit
217.9081	2.5	Rum		1.6496	Subsequent_Hit
221.2433	2.5	Cake		0.8092	Subsequent_Hit
224.9955	2.5	Chestnut		0.9273	Subsequent_Hit
228.6499	2.5	Basin		1.1158	Subsequent_Hit
232.2014	2.5	Seed		1.0484	Subsequent_Hit
235.6039	2.5	Fox		1.1487	Subsequent_Hit
238.9557	2.5	Elbow		1.1078	Subsequent_Hit
242.2755	2.5	Hammer		1.0021	Subsequent_Hit
245.3776	2.5	Ankle		1.0760	Subsequent_Hit
249.1636	2.5	Shed		1.1641	Subsequent_Hit
252.8163	2.5	Hand		1.0444	Subsequent_Hit
256.3023	2.5	Pants		1.1633	Subsequent_Hit
259.7717	2.5	Egg		0.9790	Subsequent_Hit
263.6069	2.5	Butter		1.3256	Subsequent_Hit
266.8097	2.5	Beef		0.8250	Subsequent_Hit
270.4281	2.5	Mattress		1.1916	Subsequent_Hit
274.0146	2.5	Ink		1.5569	Subsequent_Hit
277.1170	2.5	Vegetable		1.8426	Subsequent_Hit
280.8197	2.5	Sofa		1.1328	Subsequent_Hit
283.9220	2.5	Eye		1.0536	Subsequent_Hit
287.2240	2.5	Painting		1.5797	Subsequent_Hit
290.4432	2.5	Pillow		0.9273	Subsequent_Hit
293.6122	2.5	Camera		1.3787	Subsequent_Hit
296.8148	2.5	Flag		1.6529	Subsequent_Hit
300.6675	2.5	Snake		1.2451	Subsequent_Hit
303.9365	2.5	Forest	NaN	NaN	Subsequent_Hit
307.0054	2.5	Chalk		1.4922	Subsequent_Hit
310.2074	2.5	Hat		1.4274	Subsequent_Miss
313.8102	2.5	Pear		1.1237	Subsequent_Hit
317.1791	2.5	Orange		2.0265	Subsequent_Hit
320.4486	2.5	Frog		1.2820	Subsequent_Hit
323.6007	2.5	Glass		1.4720	Subsequent_Hit
327.5032	2.5	Fruit		1.6723	Subsequent_Hit
331.3726	2.5	Pickle		0.9970	Subsequent_Hit
334.6918	2.5	Lemonade		0.7479	Subsequent_Miss
338.1279	2.5	Ship		1.2528	Subsequent_Hit
341.6800	2.5	Shirt		1.0909	Subsequent_Hit
345.3496	2.5	Rose		1.0652	Subsequent_Miss
349.1021	2.5	Harbour		1.0646	Subsequent_Hit
