onset	duration	face	response	response_time	trial_type
1.2509	2.5	stimuli/Faces/JWfemale70-4neutral.bmp		1.3093	Hit
4.6866	2.5	stimuli/Faces/TMWfemale34-2neutral.bmp		1.0554	FA
8.0557	2.5	stimuli/Faces/JWfemale81-3neutral.bmp		1.1862	CR
11.3081	2.5	stimuli/Faces/JWfemale83neutral.bmp		1.3347	CR
14.6105	2.5	stimuli/Faces/TMWmale19neutral.bmp		1.2153	Hit
17.8961	2.5	stimuli/Faces/TSFHmale65neutral.bmp		1.4097	Hit
20.9650	2.5	stimuli/Faces/EMBfemale21-4neutral.bmp		2.2650	FA
24.8848	2.5	stimuli/Faces/EMBfemale22-2neutral.bmp		1.1987	Hit
28.7039	2.5	stimuli/Faces/EMBfemale22-4neutral.bmp		1.2178	Hit
32.0907	2.5	stimuli/Faces/TMWmale33neutral.bmp		1.5730	Miss
35.8930	2.5	stimuli/Faces/EMWmale19neutral.bmp		1.4699	CR
39.1114	2.5	stimuli/Faces/TMBfemale37neutral.bmp		0.7910	Hit
42.8975	2.5	stimuli/Faces/JWfemale39neutral.bmp		1.0316	CR
46.2996	2.5	stimuli/Faces/EMBfemale49neutral.bmp		1.0052	CR
49.6196	2.5	stimuli/Faces/JWfemale68-2neutral.bmp		0.8896	Hit
53.5711	2.5	stimuli/Faces/EMBfemale22neutral.bmp		1.1140	Hit
57.3078	2.5	stimuli/Faces/JWmale66neutral.bmp		0.9699	CR
60.3767	2.5	stimuli/Faces/TSFWmale68-2neutral.bmp		0.9853	CR
63.9960	2.5	stimuli/Faces/TSFWmale88neutral.bmp		1.2214	Hit
67.5152	2.5	stimuli/Faces/EMWmale32neutral.bmp		0.8390	Hit
71.2680	2.5	stimuli/Faces/TSFBmale77neutral.bmp		1.3379	Hit
75.2874	2.5	stimuli/Faces/EMHmale22neutral.bmp		0.8316	CR
78.3229	2.5	stimuli/Faces/TSFBfemale62neutral.bmp		1.2664	Hit
81.8922	2.5	stimuli/Faces/EMImale21-2neutral.bmp		1.0198	CR
85.3113	2.5	stimuli/Faces/JWfemale70-2neutral.bmp		0.8309	CR
88.9813	2.5	stimuli/Faces/TMBfemale30neutral.bmp		0.9615	CR
92.3339	2.5	stimuli/Faces/EMImale24-2neutral.bmp		2.0982	Hit
96.1523	2.5	stimuli/Faces/TSFBfemale65neutral.bmp		1.0249	CR
100.0385	2.5	stimuli/Faces/EMImale23-6neutral.bmp	NaN	1.2285	CR
103.6916	2.5	stimuli/Faces/TSFWmale74neutral.bmp		2.3912	Hit
107.1602	2.5	stimuli/Faces/JWfemale67-4neutral.bmp		0.8685	Hit
111.1131	2.5	stimuli/Faces/TSFWmale42neutral.bmp		0.8157	CR
115.0993	2.5	stimuli/Faces/JWfemale73-2neutral.bmp		1.1046	CR
119.0026	2.5	stimuli/Faces/EMBfemale20-2neutral.bmp		1.2101	Hit
122.3710	2.5	stimuli/Faces/JWfemale71-5neutral.bmp		1.1346	CR
126.0740	2.5	stimuli/Faces/TSFBfemale63neutral.bmp		1.5403	Hit
129.9272	2.5	stimuli/Faces/JWfemale65-4neutral.bmp		0.9345	CR
133.5298	2.5	stimuli/Faces/TSFWmale67-2neutral.bmp		1.5805	Miss
136.5824	2.5	stimuli/Faces/JWfemale79neutral.bmp		0.9370	CR
139.7835	2.5	stimuli/Faces/TSFWmale37neutral.bmp		1.9751	Hit
143.2862	2.5	stimuli/Faces/EMBfemale21-3neutral.bmp		1.8214	CR
147.1224	2.5	stimuli/Faces/TMWfemale36neutral.bmp		1.1911	Hit
150.5748	2.5	stimuli/Faces/TSFBfemale78-2neutral.bmp		1.4840	Hit
153.7270	2.5	stimuli/Faces/JWfemale77-4neutral.bmp		1.7344	Hit
156.9969	2.5	stimuli/Faces/EMWmale40neutral.bmp		1.0739	Hit
160.1650	2.5	stimuli/Faces/TMBmale21-3neutral.bmp		0.9809	CR
163.7509	2.5	stimuli/Faces/TSFAmale68neutral.bmp		1.6267	FA
167.1033	2.5	stimuli/Faces/JWfemale79-4neutral.bmp		0.8100	Hit
170.3056	2.5	stimuli/Faces/TMBmale28neutral.bmp		0.9376	CR
173.3912	2.5	stimuli/Faces/EMBmale20neutral.bmp		1.0100	CR
177.2609	2.5	stimuli/Faces/JWfemale65-2neutral.bmp		0.9491	CR
181.2305	2.5	stimuli/Faces/JWfemale86-2neutral.bmp		NaN	NoResp
185.2001	2.5	stimuli/Faces/TSFBfemale61neutral.bmp		1.0692	Hit
188.3185	2.5	stimuli/Faces/EMBfemale20neutral.bmp		1.4977	CR
191.5535	2.5	stimuli/Faces/EMBfemale21neutral.bmp		1.0191	Hit
195.1902	2.5	stimuli/Faces/EMWmale52neutral.bmp		0.6954	CR
199.0429	2.5	stimuli/Faces/EMWfemale34neutral.bmp		0.8586	CR
202.9629	2.5	stimuli/Faces/JWfemale71-2neutral.bmp		0.9493	CR
206.9651	2.5	stimuli/Faces/JWmale83neutral.bmp		1.6275	Miss
210.5180	2.5	stimuli/Faces/EMWmale20neutral.bmp		1.3419	CR
213.8201	2.5	stimuli/Faces/Wmale_55.bmp		1.8677	Miss
217.5397	2.5	stimuli/Faces/JWfemale77neutral.bmp		1.0100	Hit
220.9587	2.5	stimuli/Faces/JWmale64neutral.bmp		1.7111	Miss
224.2943	2.5	stimuli/Faces/TMWmale34-4neutral.bmp		1.1397	Hit
227.5462	2.5	stimuli/Faces/TMWmale43neutral.bmp		1.0734	CR
231.5490	2.5	stimuli/Faces/TSFWmale46neutral.bmp		1.0370	CR
234.8186	2.5	stimuli/Faces/EMBfemale29neutral.bmp		1.3300	CR
238.6221	2.5	stimuli/Faces/TMBfemale41neutral.bmp		0.8256	Hit
242.3404	2.5	stimuli/Faces/TSFBfemale70-2neutral.bmp		1.0781	Hit
245.4437	2.5	stimuli/Faces/Wmale_50.bmp		1.4215	Hit
248.5952	2.5	stimuli/Faces/JWfemale82-2neutral.bmp		1.7786	Miss
251.9142	2.5	stimuli/Faces/JWfemale76-3neutral.bmp		1.6166	CR
255.5335	2.5	stimuli/Faces/JWmale83-2neutral.bmp		1.3140	CR
259.4363	2.5	stimuli/Faces/TMHmale18neutral.bmp		0.9204	Hit
263.1064	2.5	stimuli/Faces/JWfemale74-2neutral.bmp		1.0909	CR
266.6415	2.5	stimuli/Faces/TMWmale34neutral.bmp		0.8520	CR
269.7771	2.5	stimuli/Faces/TMBfemale40neutral.bmp		1.2517	Hit
273.5303	2.5	stimuli/Faces/TMWmale20-4neutral.bmp		NaN	NoResp
276.7654	2.5	stimuli/Faces/TMBmale18neutral.bmp		0.9055	Hit
279.9520	2.5	stimuli/Faces/TMWmale71neutral.bmp		0.9156	CR
283.6370	2.5	stimuli/Faces/TMBmale41neutral.bmp		2.1867	Miss
287.5558	2.5	stimuli/Faces/TSFBfemale54neutral.bmp		1.1987	Hit
290.6920	2.5	stimuli/Faces/TMWfemale49-2neutral.bmp		0.8668	CR
294.2612	2.5	stimuli/Faces/JWfemale72-2neutral.bmp		2.3620	Miss
297.8641	2.5	stimuli/Faces/JWfemale66neutral.bmp		1.1491	CR
301.5005	2.5	stimuli/Faces/TSFWmale54neutral.bmp		1.2092	Hit
305.3692	2.5	stimuli/Faces/JWmale81-2neutral.bmp		2.2895	Miss
308.8717	2.5	stimuli/Faces/JWmale76neutral.bmp		0.7981	CR
311.9740	2.5	stimuli/Faces/WBfemale47neutral.bmp		0.6585	CR
315.6767	2.5	stimuli/Faces/TSFWmale63neutral.bmp		1.5691	CR
319.1292	2.5	stimuli/Faces/TMBmale39neutral.bmp		1.5402	Miss
322.1480	2.5	stimuli/Faces/TMWmale34-2neutral.bmp		0.8221	Hit
325.6671	2.5	stimuli/Faces/EMImale25-2neutral.bmp		1.2392	Hit
329.1541	2.5	stimuli/Faces/TSFHfemale64neutral.bmp		1.2658	CR
332.9229	2.5	stimuli/Faces/JWfemale50neutral.bmp		0.9383	Hit
336.3258	2.5	stimuli/Faces/JWfemale44neutral.bmp		1.3648	Miss
339.7940	2.5	stimuli/Faces/JWfemale80-4neutral.bmp		0.9670	CR
342.8461	2.5	stimuli/Faces/EMWfemale25neutral.bmp		1.5425	CR
346.0152	2.5	stimuli/Faces/EMWfemale22neutral.bmp		1.4766	CR
349.5670	2.5	stimuli/Faces/JWmale67neutral.bmp		0.7467	Hit
