onset	duration	word	response	response_time	trial_type
1.1675	2.5	Mouse		2.0226	Subsequent_Hit
4.5366	2.5	Necklace		0.8694	Subsequent_Hit
8.5229	2.5	Limousine		1.7450	Subsequent_Hit
11.5750	2.5	Duck		2.3549	Subsequent_Hit
15.3944	2.5	Elbow		1.8392	Subsequent_Hit
18.7636	2.5	Skunk		0.9491	Subsequent_Hit
22.2328	2.5	Cement		2.2012	Subsequent_Miss
25.8689	2.5	Tongue		1.5909	Subsequent_Hit
29.3212	2.5	Book		0.8565	Subsequent_Hit
32.8228	2.5	Lamb		1.1020	Subsequent_Hit
36.2111	2.5	Drum	NaN	NaN	Subsequent_Hit
39.6619	2.5	Glove		1.2099	Subsequent_Hit
42.9318	2.5	Plum		1.0913	Subsequent_Hit
46.0500	2.5	Ship		1.1279	Subsequent_Hit
49.6528	2.5	Pin		1.2209	Subsequent_Hit
52.7063	2.5	Painting		0.8736	Subsequent_Hit
56.6243	2.5	Diamond		1.5045	Subsequent_Hit
60.3770	2.5	Pants		1.5858	Subsequent_Miss
63.6460	2.5	Window		1.1856	Subsequent_Hit
66.8980	2.5	Fruit		0.8217	Subsequent_Hit
70.4344	2.5	Rock		1.0335	Subsequent_Hit
73.5865	2.5	Umbrella		1.7135	Subsequent_Hit
77.5560	2.5	Wig		0.8989	Subsequent_Hit
81.5589	2.5	Bath		1.1358	Subsequent_Miss
85.1114	2.5	Basin		1.0846	Subsequent_Hit
88.9976	2.5	Cherry		1.1953	Subsequent_Hit
92.7670	2.5	Teeth		1.6760	Subsequent_Hit
96.7700	2.5	Bed		1.6357	Subsequent_Hit
100.4069	2.5	Rat		0.7631	Subsequent_Hit
103.5581	2.5	Ice		0.8431	Subsequent_Hit
107.3943	2.5	Rope		0.9025	Subsequent_Hit
110.7132	2.5	Shed		1.1426	Subsequent_Hit
114.4827	2.5	Blood		1.2301	Subsequent_Hit
118.1019	2.5	Gravy		1.3097	Subsequent_Hit
122.0047	2.5	Button		0.9742	Subsequent_Hit
125.3904	2.5	Bean		1.9722	Subsequent_Hit
129.4101	2.5	Tomato		1.2076	Subsequent_Hit
133.1461	2.5	Bandage		1.2245	Subsequent_Hit
136.6153	2.5	Sheep		1.5163	Subsequent_Hit
140.1345	2.5	Bread		1.0032	Subsequent_Hit
143.5536	2.5	Penny		0.9850	Subsequent_Hit
147.0561	2.5	Sparrow		0.9495	Subsequent_Hit
150.8412	2.5	Blanket		1.6138	Subsequent_Hit
153.9278	2.5	Sofa		1.1240	Subsequent_Hit
157.1633	2.5	Onion		0.8854	Subsequent_Miss
160.7327	2.5	Rabbit		1.8189	Subsequent_Hit
164.0350	2.5	Jaw		1.2666	Subsequent_Hit
167.2373	2.5	Seed		1.1893	Subsequent_Miss
171.2067	2.5	Walrus		1.7549	Subsequent_Hit
174.2756	2.5	Pencil		1.5670	Subsequent_Hit
177.4614	2.5	Pear		1.2927	Subsequent_Hit
181.1305	2.5	Coffee		1.8172	Subsequent_Hit
184.3495	2.5	Orange		2.1146	Subsequent_Hit
188.0522	2.5	Grape		1.1265	Subsequent_Hit
191.2211	2.5	Chestnut		1.1476	Subsequent_Hit
195.1240	2.5	Blouse		1.8859	Subsequent_Miss
198.2930	2.5	Brick		1.1149	Subsequent_Hit
201.8957	2.5	Tail		1.4911	Subsequent_Hit
205.1478	2.5	Pig		1.4811	Subsequent_Hit
208.9170	2.5	Typewriter		0.9518	Subsequent_Hit
212.2197	2.5	Tent		1.0811	Subsequent_Hit
216.1724	2.5	Cucumber		1.6874	Subsequent_Hit
219.7416	2.5	Pickle		1.4569	Subsequent_Hit
223.3442	2.5	Heart		2.0307	Subsequent_Hit
227.1968	2.5	Peach		0.8597	Subsequent_Hit
230.5495	2.5	Rose		1.8561	Subsequent_Hit
233.8853	2.5	Hammer		1.0014	Subsequent_Hit
237.3710	2.5	Flea		1.2286	Subsequent_Hit
240.4733	2.5	Puddle		0.8052	Subsequent_Hit
244.2103	2.5	Rum		1.1975	Subsequent_Hit
247.4281	2.5	Asparagus		1.4836	Subsequent_Hit
250.5473	2.5	Garlic		1.0923	Subsequent_Hit
254.3499	2.5	Skirt		1.3029	Subsequent_Hit
257.9024	2.5	Rain		0.6425	Subsequent_Hit
260.9380	2.5	Nose		1.3637	Subsequent_Hit
263.9736	2.5	Cake		1.9170	Subsequent_Hit
267.5425	2.5	Tiger		0.6863	Subsequent_Hit
271.4621	2.5	Spoon		0.9775	Subsequent_Hit
274.7146	2.5	Broom		1.0539	Subsequent_Hit
278.5672	2.5	Vegetable		2.1573	Subsequent_Hit
282.5203	2.5	Boat		1.1594	Subsequent_Miss
286.2061	2.5	Belt		0.8765	Subsequent_Hit
289.4084	2.5	Sleigh		0.9283	Subsequent_Hit
293.3446	2.5	Pedal		1.5632	Subsequent_Hit
296.9973	2.5	Beef		1.4784	Subsequent_Hit
300.8161	2.5	Knife		0.8756	Subsequent_Hit
304.6861	2.5	Cereal		1.6977	Subsequent_Hit
308.1052	2.5	Stomach		0.8615	Subsequent_Hit
311.6078	2.5	Sand		1.2358	Subsequent_Hit
314.9433	2.5	Stone		0.8341	Subsequent_Hit
318.0791	2.5	Mud		1.5994	Subsequent_Hit
321.7983	2.5	Hat		2.1975	Subsequent_Hit
324.8837	2.5	Jeep		1.4069	Subsequent_Hit
328.7373	2.5	Door		1.6843	Subsequent_Hit
331.7555	2.5	Walnut		1.3963	Subsequent_Hit
335.0745	2.5	Strawberry		0.7311	Subsequent_Hit
338.4770	2.5	Soda		1.0715	Subsequent_Hit
342.1963	2.5	Apple		1.6304	Subsequent_Hit
345.6321	2.5	Earthworm		1.3956	Subsequent_NoResp
349.3188	2.5	Milk		1.5508	Subsequent_Hit
