onset	duration	word	response	response_time	trial_type
0.5173	2.5	Curler		1.3464	Subsequent_Hit
4.3870	2.5	Cotton		0.9698	Subsequent_Hit
7.7892	2.5	Jeep		0.7044	Subsequent_Hit
11.4087	2.5	Rope		1.7641	Subsequent_Hit
15.1445	2.5	Lemon		0.7681	Subsequent_Hit
19.0978	2.5	Lamp		1.0329	Subsequent_Hit
22.1665	2.5	Bag		0.7463	Subsequent_Hit
25.9525	2.5	Blood		1.3453	Subsequent_Hit
29.5051	2.5	Cucumber		0.7346	Subsequent_Hit
33.0078	2.5	Rock		1.1089	Subsequent_Hit
36.2101	2.5	Lamb		0.8148	Subsequent_Hit
39.3120	2.5	Ship		0.6747	Subsequent_Hit
43.3152	2.5	Rum		1.0035	Subsequent_Hit
47.0177	2.5	Bread		0.6480	Subsequent_Hit
50.2199	2.5	Sand		0.8607	Subsequent_Hit
54.0560	2.5	Butter		0.9557	Subsequent_Hit
57.7087	2.5	Stomach		1.9180	Subsequent_Hit
61.4781	2.5	Ceiling		0.9064	Subsequent_Hit
64.5805	2.5	Snow		0.7160	Subsequent_Hit
68.5499	2.5	Ankle		2.3768	Subsequent_Hit
72.0191	2.5	Stew		1.3966	Subsequent_Hit
75.2551	2.5	Sun		1.0296	Subsequent_Hit
78.5069	2.5	Teeth		1.2359	Subsequent_Hit
82.0262	2.5	Orange	NaN	NaN	Subsequent_Hit
85.6453	2.5	Grasshopper		1.6644	Subsequent_Hit
89.0312	2.5	Limousine		1.1795	Subsequent_Hit
92.4839	2.5	Bridge		1.7088	Subsequent_Hit
95.8528	2.5	Collar		1.3528	Subsequent_Hit
99.3218	2.5	Mirror		1.0587	Subsequent_Hit
103.1413	2.5	Window		0.9582	Subsequent_Hit
107.0609	2.5	Straw		1.1016	Subsequent_Hit
110.6792	2.5	Pig		1.1105	Subsequent_Hit
114.6663	2.5	Mud		1.1593	Subsequent_Hit
118.1703	2.5	Chicken		1.2032	Subsequent_Hit
121.8382	2.5	Whale		1.1204	Subsequent_Hit
125.7577	2.5	Carrot		1.3460	Subsequent_Hit
129.2436	2.5	Beetle		1.3290	Subsequent_Hit
132.4962	2.5	Pants		1.3203	Subsequent_Hit
136.0819	2.5	Bed		0.8997	Subsequent_Hit
139.3840	2.5	Coffee		1.7866	Subsequent_Hit
142.6855	2.5	Wool		1.2260	Subsequent_Hit
145.8392	2.5	Bath		1.4865	Subsequent_Hit
148.9407	2.5	Egg		0.8997	Subsequent_Hit
152.3447	2.5	Girl		0.8520	Subsequent_Hit
156.1463	2.5	Knife		1.0223	Subsequent_Hit
159.2152	2.5	Rose		0.6294	Subsequent_Hit
162.7837	2.5	Needle		1.2838	Subsequent_Hit
166.1701	2.5	Jaw		0.8875	Subsequent_Hit
169.4891	2.5	Bean		1.3305	Subsequent_Hit
173.4587	2.5	Rat		1.1560	Subsequent_Hit
177.0111	2.5	Pond		0.7392	Subsequent_Hit
180.6797	2.5	Necklace		0.8188	Subsequent_Hit
183.9498	2.5	Rain		1.2557	Subsequent_Hit
187.0019	2.5	Pie		1.0408	Subsequent_Hit
190.9882	2.5	Chair		0.5644	Subsequent_Hit
194.7402	2.5	Frog		1.0564	Subsequent_Hit
198.0432	2.5	Book		0.5815	Subsequent_Hit
201.6123	2.5	Flag		0.7101	Subsequent_Hit
205.4149	2.5	Drum		0.6606	Subsequent_Hit
208.5673	2.5	Soda		0.6003	Subsequent_Hit
212.5868	2.5	Head		0.8478	Subsequent_Hit
215.9394	2.5	Clown		1.2570	Subsequent_Hit
219.6252	2.5	Milk		1.0051	Subsequent_Hit
223.2623	2.5	Jacket		1.0582	Subsequent_Hit
226.9807	2.5	Skirt		1.1051	Subsequent_Hit
230.4009	2.5	Glass		1.7480	Subsequent_Hit
233.5366	2.5	Camera		1.4170	Subsequent_Hit
237.3879	2.5	Sleigh		1.0785	Subsequent_Hit
240.7235	2.5	Shark		1.2661	Subsequent_Hit
244.3098	2.5	Coat		1.0556	Subsequent_Hit
247.3452	2.5	Cigarette		0.9746	Subsequent_Hit
250.5975	2.5	Snake		1.8350	Subsequent_Miss
254.1667	2.5	Stone		0.9426	Subsequent_Hit
257.9863	2.5	Weed		1.6260	Subsequent_Hit
261.1050	2.5	Apple		0.6913	Subsequent_Hit
264.9911	2.5	Gravy		0.7403	Subsequent_Hit
268.1936	2.5	Car		0.6178	Subsequent_Hit
271.9295	2.5	Heart		0.6368	Subsequent_Hit
275.8324	2.5	Fur		1.2401	Subsequent_Hit
279.6684	2.5	Thread		0.8709	Subsequent_Hit
283.3879	2.5	Toe		1.0917	Subsequent_Hit
286.8904	2.5	Tiger		1.5470	Subsequent_Hit
290.0272	2.5	Honey		0.7180	Subsequent_Miss
293.7787	2.5	Balloon		0.8448	Subsequent_Hit
297.1475	2.5	Umbrella		1.7219	Subsequent_Hit
301.0840	2.5	Basin		1.0544	Subsequent_Hit
304.3207	2.5	Broom		1.4187	Subsequent_Miss
307.4050	2.5	Puddle		1.3162	Subsequent_Hit
311.1078	2.5	Kettle		0.8894	Subsequent_Hit
314.9773	2.5	Wood		0.8541	Subsequent_Hit
318.3808	2.5	Nose		0.8496	Subsequent_Hit
321.4166	2.5	Tomato		0.8470	Subsequent_Hit
324.9509	2.5	Cookie		0.7865	Subsequent_Hit
328.1365	2.5	Vegetable		0.8188	Subsequent_Hit
331.5895	2.5	Pill		2.1558	Subsequent_Hit
334.7742	2.5	Lemonade		1.0110	Subsequent_Hit
338.6620	2.5	Walnut		1.1524	Subsequent_Hit
341.7808	2.5	Lion		0.6345	Subsequent_Hit
345.7327	2.5	Water		1.2467	Subsequent_Hit
349.0684	2.5	Tongue		0.8799	Subsequent_Hit
