onset	duration	word	response	response_time	trial_type
1.3177	2.5	Bag		1.7615	Subsequent_Hit
5.3374	2.5	Blouse		1.6715	Subsequent_Hit
8.9897	2.5	Lamb		1.2323	Subsequent_Hit
12.7930	2.5	Thread		1.3880	Subsequent_Hit
15.9119	2.5	Blood		1.6584	Subsequent_Hit
19.7810	2.5	Water		0.9150	Subsequent_Hit
23.6005	2.5	Seed		1.0553	Subsequent_Hit
26.6540	2.5	Birch		0.9879	Subsequent_Miss
29.7546	2.5	Umbrella		1.2353	Subsequent_Hit
33.5409	2.5	Mirror		0.9760	Subsequent_Hit
37.0605	2.5	Straw		1.5294	Subsequent_Hit
40.5464	2.5	Sofa		1.4545	Subsequent_Hit
43.7818	2.5	Coffee		1.1040	Subsequent_Hit
47.7849	2.5	Rain		0.9311	Subsequent_Hit
50.8204	2.5	Wood		1.3196	Subsequent_Hit
54.7244	2.5	Rocket		1.0740	Subsequent_Hit
58.3259	2.5	Mud		1.9313	Subsequent_Hit
62.2786	2.5	Curler		0.8744	Subsequent_Hit
66.1146	2.5	Duck		1.1315	Subsequent_Hit
69.4673	2.5	Rat		0.8128	Subsequent_Hit
72.9187	2.5	Frost		1.1455	Subsequent_Hit
76.2222	2.5	Flea	NaN	NaN	Subsequent_Hit
79.7244	2.5	Pillow		1.2157	Subsequent_Hit
83.4778	2.5	Pencil		1.3074	Subsequent_Hit
86.8630	2.5	Rum		1.1039	Subsequent_Hit
90.5337	2.5	Beach		1.5234	Subsequent_Hit
93.6848	2.5	Pig		1.3021	Subsequent_Hit
97.3871	2.5	Camera		0.9089	Subsequent_Hit
100.7732	2.5	Walnut		1.0495	Subsequent_Hit
104.5257	2.5	Steak		0.8862	Subsequent_Hit
107.8795	2.5	Frog		0.7114	Subsequent_Hit
111.5807	2.5	Toe		1.0283	Subsequent_Hit
115.4502	2.5	Cotton		1.5587	Subsequent_Hit
118.5691	2.5	Soup		1.2778	Subsequent_Hit
122.3385	2.5	Walrus		0.8233	Subsequent_Hit
125.6075	2.5	Tongue		1.2594	Subsequent_Hit
129.5437	2.5	Weed		0.9463	Subsequent_Hit
133.5299	2.5	Carrot		1.3637	Subsequent_Hit
136.9655	2.5	Penny		1.9024	Subsequent_Hit
140.1680	2.5	Ankle		1.1899	Subsequent_Hit
143.6203	2.5	Vegetable		0.7555	Subsequent_Hit
147.4232	2.5	Rabbit		0.7820	Subsequent_Hit
150.8423	2.5	Ink		0.9719	Subsequent_Hit
154.4118	2.5	Saucer		0.9671	Subsequent_Hit
158.2479	2.5	Broom		0.9453	Subsequent_Hit
161.3833	2.5	Sparrow		1.4284	Subsequent_Hit
164.9521	2.5	Peach		0.9298	Subsequent_Hit
168.5887	2.5	Bed		0.9803	Subsequent_Hit
172.0912	2.5	Bath		1.2368	Subsequent_Hit
175.6437	2.5	Collar		1.0571	Subsequent_Hit
178.8295	2.5	Apple		1.0786	Subsequent_Hit
182.7988	2.5	Ice		0.9823	Subsequent_Miss
186.1192	2.5	Cucumber		0.8575	Subsequent_Hit
190.0873	2.5	Butter		1.2976	Subsequent_Hit
193.1728	2.5	House		1.3611	Subsequent_Hit
196.2598	2.5	Radio		1.0722	Subsequent_Hit
199.5610	2.5	Pill		2.4677	Subsequent_Hit
203.1801	2.5	Telephone	NaN	NaN	Subsequent_Hit
206.4840	2.5	Chalk		1.7190	Subsequent_Hit
209.6513	2.5	Typewriter		1.0015	Subsequent_Hit
213.1205	2.5	Shrimp		1.1324	Subsequent_Miss
216.8735	2.5	Cement		1.6283	Subsequent_Hit
220.4424	2.5	Mountain		0.8782	Subsequent_Hit
223.9783	2.5	Tiger		0.9955	Subsequent_Hit
227.9643	2.5	Clown		1.5235	Subsequent_Hit
231.2171	2.5	Ball		1.4658	Subsequent_Hit
235.1697	2.5	Fruit		0.8841	Subsequent_Hit
238.3553	2.5	Needle		1.2734	Subsequent_Hit
241.7090	2.5	Painting		1.2938	Subsequent_Hit
244.9432	2.5	Beef		0.8178	Subsequent_Hit
248.1622	2.5	Handkerchief		1.3297	Subsequent_Hit
251.2972	2.5	Orange		2.0029	Subsequent_Hit
254.5838	2.5	Fur		1.4441	Subsequent_Hit
258.2199	2.5	Pea		0.7628	Subsequent_Hit
261.5055	2.5	Forest		0.8124	Subsequent_Hit
264.5741	2.5	Grasshopper		1.6368	Subsequent_Hit
268.1947	2.5	Harbour		1.4661	Subsequent_Hit
271.8127	2.5	Fox		1.1719	Subsequent_Hit
274.9479	2.5	Sheet		0.9254	Subsequent_Hit
278.8680	2.5	Bracelet		0.8448	Subsequent_Hit
282.5872	2.5	Rug		1.2617	Subsequent_Hit
286.1901	2.5	Pedal		1.1877	Subsequent_Hit
289.2252	2.5	Bridge		2.0608	Subsequent_Hit
292.2770	2.5	Kettle		0.8108	Subsequent_Hit
295.9967	2.5	Jacket		0.7111	Subsequent_Hit
299.4328	2.5	Rice		0.8679	Subsequent_Hit
303.3356	2.5	Rope		0.6602	Subsequent_Hit
306.3378	2.5	Pie		1.0710	Subsequent_Hit
309.8567	2.5	Stone		0.9121	Subsequent_Hit
313.7596	2.5	Necklace		0.7772	Subsequent_Hit
317.3122	2.5	Blanket		0.8335	Subsequent_Hit
321.1983	2.5	Cabbage		0.7975	Subsequent_Hit
324.4510	2.5	Rose		0.9159	Subsequent_Hit
328.3034	2.5	Beetle		1.1645	Subsequent_Hit
331.7058	2.5	Spoon		1.1029	Subsequent_Hit
335.1249	2.5	Garlic		0.8242	Subsequent_Hit
338.4776	2.5	Strawberry		0.9771	Subsequent_Hit
342.2132	2.5	Elbow		1.3835	Subsequent_Hit
345.4326	2.5	Tea		0.7603	Subsequent_Hit
349.1018	2.5	Rock		0.7720	Subsequent_Hit
