onset	duration	face	response	response_time	trial_type
1.4677	2.5	stimuli/Faces/EMBfemale21-4neutral.bmp		1.7900	FA
4.5704	2.5	stimuli/Faces/TSFWmale69neutral.bmp		0.8653	Hit
8.3727	2.5	stimuli/Faces/TSFWmale71neutral.bmp		1.5718	CR
11.6586	2.5	stimuli/Faces/EMWmale32neutral.bmp		1.0411	Hit
14.8609	2.5	stimuli/Faces/JWfemale65-6neutral.bmp		1.1026	Hit
18.8484	2.5	stimuli/Faces/TSFBfemale65-2neutral.bmp		1.1292	FA
21.9655	2.5	stimuli/Faces/EMWfemale30neutral.bmp		1.0232	Hit
25.8352	2.5	stimuli/Faces/Wmale_55-3.bmp		1.0173	CR
29.0540	2.5	stimuli/Faces/TSFWmale54neutral.bmp	NaN	NaN	NoResp
32.6732	2.5	stimuli/Faces/JWfemale77-4neutral.bmp		1.6535	CR
36.6263	2.5	stimuli/Faces/TMWfemale35neutral.bmp		1.1542	CR
39.6949	2.5	stimuli/Faces/TSFWmale67-2neutral.bmp		1.1589	Miss
43.1144	2.5	stimuli/Faces/TMWmale34-4neutral.bmp		2.0641	Hit
46.7847	2.5	stimuli/Faces/TSFBfemale54neutral.bmp		0.8659	FA
50.2048	2.5	stimuli/Faces/TSFBmale77neutral.bmp		1.0717	Hit
53.8053	2.5	stimuli/Faces/EMWfemale21-5neutral.bmp		1.1341	CR
57.5246	2.5	stimuli/Faces/EMIfemale19neutral.bmp		1.5699	CR
60.6279	2.5	stimuli/Faces/TSFBfemale78-2neutral.bmp		0.8347	Hit
64.1460	2.5	stimuli/Faces/EMWfemale22-3neutral.bmp		1.3674	Miss
67.5325	2.5	stimuli/Faces/JWfemale64-3neutral.bmp		1.2574	Hit
70.8681	2.5	stimuli/Faces/JWfemale71-5neutral.bmp		1.2053	Hit
73.9196	2.5	stimuli/Faces/TMWmale71neutral.bmp		0.9879	Miss
77.2893	2.5	stimuli/Faces/JWfemale74-2neutral.bmp		0.9954	Miss
80.7422	2.5	stimuli/Faces/EMBfemale29neutral.bmp		0.9134	Hit
83.9441	2.5	stimuli/Faces/TSFHmale65neutral.bmp		1.1514	Hit
87.7130	2.5	stimuli/Faces/TMWfemale43neutral.bmp		0.9418	CR
91.4656	2.5	stimuli/Faces/JWfemale83neutral.bmp		1.9579	FA
95.4018	2.5	stimuli/Faces/EMWmale20neutral.bmp		0.9431	CR
99.1564	2.5	stimuli/Faces/TMBmale21neutral.bmp		1.7143	CR
102.7234	2.5	stimuli/Faces/EMWmale19neutral.bmp		1.7282	CR
106.3430	2.5	stimuli/Faces/EMBfemale33neutral.bmp		1.8424	FA
109.8621	2.5	stimuli/Faces/JWmale79neutral.bmp		1.2655	CR
113.4145	2.5	stimuli/Faces/TMBfemale51neutral.bmp		0.9792	CR
117.4342	2.5	stimuli/Faces/EMWfemale21-3neutral.bmp		1.7255	CR
121.2204	2.5	stimuli/Faces/EMBfemale22-4neutral.bmp		1.3282	CR
125.1065	2.5	stimuli/Faces/EMBfemale22neutral.bmp		2.0031	CR
128.4922	2.5	stimuli/Faces/TMWmale30neutral.bmp		0.7401	Hit
132.3782	2.5	stimuli/Faces/TSFWmale88neutral.bmp		1.4144	CR
135.9150	2.5	stimuli/Faces/EMWmale40neutral.bmp		1.7945	FA
139.4997	2.5	stimuli/Faces/TMWmale41neutral.bmp		1.0119	CR
143.1860	2.5	stimuli/Faces/Wmale_65.bmp		1.8600	FA
146.4739	2.5	stimuli/Faces/EMWmale19-3neutral.bmp		0.9957	Hit
149.9406	2.5	stimuli/Faces/TSFBfemale63-2neutral.bmp		1.0791	Hit
153.6431	2.5	stimuli/Faces/EMImale23-6neutral.bmp		1.3275	CR
157.2135	2.5	stimuli/Faces/TMWmale45neutral.bmp		1.1640	CR
160.6496	2.5	stimuli/Faces/TMWmale34-3neutral.bmp		2.1699	Miss
164.4846	2.5	stimuli/Faces/TSFBfemale65-3neutral.bmp		1.6327	CR
168.2882	2.5	stimuli/Faces/EMWfemale18-2neutral.bmp		2.1602	CR
171.6570	2.5	stimuli/Faces/JWmale80neutral.bmp		1.4854	Hit
174.8424	2.5	stimuli/Faces/JWfemale69-2neutral.bmp		1.0350	Hit
178.7447	2.5	stimuli/Faces/TSFBfemale63neutral.bmp		1.0086	FA
181.9974	2.5	stimuli/Faces/TMBmale49neutral.bmp		0.9401	Hit
185.2329	2.5	stimuli/Faces/JWfemale42neutral.bmp		1.3394	Hit
189.2526	2.5	stimuli/Faces/JWmale81-2neutral.bmp		1.4765	CR
192.7389	2.5	stimuli/Faces/Wmale_55.bmp		0.9955	Miss
196.3909	2.5	stimuli/Faces/TMWmale19neutral.bmp		1.8100	CR
199.7097	2.5	stimuli/Faces/TMBmale24neutral.bmp		0.7878	Hit
203.6295	2.5	stimuli/Faces/TMBfemale33neutral.bmp		0.9199	CR
207.3487	2.5	stimuli/Faces/TSFWmale57neutral.bmp		1.4081	CR
210.6515	2.5	stimuli/Faces/TMWmale22-3neutral.bmp		0.8241	Hit
214.1370	2.5	stimuli/Faces/JWfemale80-4neutral.bmp		2.2929	Hit
218.0922	2.5	stimuli/Faces/JWfemale76-4neutral.bmp		0.8652	CR
222.0421	2.5	stimuli/Faces/TMWmale43neutral.bmp		0.9116	FA
226.0449	2.5	stimuli/Faces/JWfemale70-4neutral.bmp		1.4004	CR
229.1827	2.5	stimuli/Faces/JWfemale70-2neutral.bmp		1.2607	Miss
232.2513	2.5	stimuli/Faces/TMWmale34-2neutral.bmp		1.2602	Hit
235.9860	2.5	stimuli/Faces/TSFBmale50neutral.bmp		1.0597	FA
239.1396	2.5	stimuli/Faces/JWfemale71-2neutral.bmp		1.3729	Hit
242.8410	2.5	stimuli/Faces/TSFWmale79neutral.bmp		1.7523	CR
246.3434	2.5	stimuli/Faces/JWfemale68-2neutral.bmp		1.9503	Hit
249.5124	2.5	stimuli/Faces/TMBmale41neutral.bmp		0.8550	Hit
253.4152	2.5	stimuli/Faces/TMBmale39neutral.bmp		1.0792	CR
257.3348	2.5	stimuli/Faces/JWmale38neutral.bmp		1.7317	CR
260.6890	2.5	stimuli/Faces/JWfemale78neutral.bmp		0.9314	Hit
264.3571	2.5	stimuli/Faces/EMWfemale20-2neutral.bmp		0.8194	FA
267.3755	2.5	stimuli/Faces/TMWmale37neutral.bmp		1.1449	Hit
271.1446	2.5	stimuli/Faces/TMWfemale37neutral.bmp		0.8954	CR
274.6978	2.5	stimuli/Faces/TSFWmale66-2neutral.bmp		1.9505	FA
278.1664	2.5	stimuli/Faces/JWmale76neutral.bmp		1.5739	Miss
281.2206	2.5	stimuli/Faces/JWfemale79neutral.bmp		0.9297	Miss
284.3387	2.5	stimuli/Faces/EMImale25-2neutral.bmp		1.7436	Hit
288.1576	2.5	stimuli/Faces/TMWmale37-2neutral.bmp		1.2221	CR
291.4592	2.5	stimuli/Faces/TSFBfemale62neutral.bmp		1.1023	Hit
295.3119	2.5	stimuli/Faces/TMBfemale57neutral.bmp		1.0089	CR
298.4810	2.5	stimuli/Faces/JWfemale79-4neutral.bmp		1.7205	Miss
302.1336	2.5	stimuli/Faces/EMBmale20neutral.bmp		1.8309	CR
305.7194	2.5	stimuli/Faces/TMBmale21-3neutral.bmp		2.2962	CR
308.8721	2.5	stimuli/Faces/JWfemale86-2neutral.bmp		2.1464	Hit
312.2408	2.5	stimuli/Faces/TSFWmale70neutral.bmp		1.3517	Hit
315.2596	2.5	stimuli/Faces/JWfemale66neutral.bmp		1.1439	Hit
319.0956	2.5	stimuli/Faces/EMBfemale21neutral.bmp		1.7718	CR
322.2981	2.5	stimuli/Faces/EMIfemale25-2neutral.bmp		0.6712	Hit
325.5669	2.5	stimuli/Faces/JWmale89neutral.bmp		1.5418	Hit
329.4028	2.5	stimuli/Faces/EMBfemale25neutral.bmp		1.7706	FA
332.4893	2.5	stimuli/Faces/JWfemale65-4neutral.bmp		1.8670	Hit
335.8741	2.5	stimuli/Faces/EMWmale21-3neutral.bmp		1.4573	Hit
339.1269	2.5	stimuli/Faces/TMBfemale33-2neutral.bmp		1.5455	Hit
342.3963	2.5	stimuli/Faces/TSFHfemale64neutral.bmp		1.7398	Hit
346.0316	2.5	stimuli/Faces/JWfemale72-2neutral.bmp		0.9243	CR
349.4853	2.5	stimuli/Faces/EMIfemale26neutral.bmp		1.0820	Hit
