onset	duration	word	response	response_time	trial_type
1.3510	2.5	Boat		1.2819	Subsequent_Hit
5.1204	2.5	Diamond		1.1064	Subsequent_Hit
8.6229	2.5	Girl		0.9393	Subsequent_Hit
11.8090	2.5	Glass		1.2808	Subsequent_Hit
15.5122	2.5	Rug		1.1901	Subsequent_Hit
19.3307	2.5	Sleigh		2.0651	Subsequent_Hit
22.5162	2.5	Flag		1.8584	Subsequent_Hit
25.8190	2.5	Rain		0.7809	Subsequent_Hit
29.2880	2.5	Lamb		0.7539	Subsequent_Hit
32.8240	2.5	Radio		1.1719	Subsequent_Hit
36.1263	2.5	Toe		0.9559	Subsequent_Hit
39.9625	2.5	Tail		1.0114	Subsequent_Hit
43.3814	2.5	Pants		1.1846	Subsequent_Hit
46.5337	2.5	Garden		1.0201	Subsequent_Hit
50.1529	2.5	Earthworm		1.0140	Subsequent_Hit
53.8722	2.5	Carrot		0.9617	Subsequent_Miss
57.5246	2.5	Typewriter		1.4741	Subsequent_Hit
60.9775	2.5	Chalk		1.2033	Subsequent_Hit
64.4464	2.5	Land		0.9743	Subsequent_Hit
67.4823	2.5	Rabbit		1.2724	Subsequent_Hit
71.2852	2.5	Pond		0.9477	Subsequent_Hit
75.1046	2.5	Teeth		0.8764	Subsequent_Hit
78.8904	2.5	Broom		1.1724	Subsequent_Hit
82.7937	2.5	Book		0.7492	Subsequent_Hit
86.4121	2.5	Collar		0.9548	Subsequent_Hit
89.6653	2.5	Cork		1.8024	Subsequent_Hit
93.6175	2.5	Walrus		1.9473	Subsequent_Hit
96.7205	2.5	Wig	NaN	NaN	Subsequent_Miss
100.7227	2.5	Cigarette		0.7660	Subsequent_Hit
104.3919	2.5	Cookie		0.7540	Subsequent_Hit
108.0451	2.5	Bracelet		0.9326	Subsequent_Hit
111.5483	2.5	Penny		1.6675	Subsequent_Hit
115.1001	2.5	Tooth		2.2247	Subsequent_Hit
118.1869	2.5	Snake		2.0729	Subsequent_Hit
122.1387	2.5	Forest		0.7780	Subsequent_Hit
125.8743	2.5	Puddle		0.7078	Subsequent_Miss
128.9765	2.5	Birch	NaN	NaN	Subsequent_Hit
132.4790	2.5	Pear		1.9868	Subsequent_Miss
136.3982	2.5	Jaw		2.0726	Subsequent_Hit
139.7857	2.5	Shark		1.5884	Subsequent_Hit
143.6540	2.5	Egg		1.0119	Subsequent_Hit
146.8391	2.5	Ankle		2.1966	Subsequent_Hit
150.0086	2.5	Cucumber		1.9183	Subsequent_Miss
153.8942	2.5	Mouse		1.9288	Subsequent_Hit
157.7806	2.5	Hand		0.8232	Subsequent_Hit
161.4834	2.5	Potato		1.1044	Subsequent_Hit
165.3529	2.5	Whale		1.6689	Subsequent_Miss
168.8222	2.5	Pig		0.9765	Subsequent_Hit
172.2577	2.5	Umbrella		1.2111	Subsequent_Hit
175.8117	2.5	Skirt		1.2972	Subsequent_Hit
179.5800	2.5	Pea		1.8389	Subsequent_Hit
182.8823	2.5	Cereal		1.5276	Subsequent_Miss
185.9676	2.5	Van		1.3122	Subsequent_Miss
188.9867	2.5	Pill		1.1701	Subsequent_Hit
192.9060	2.5	Curler		1.1816	Subsequent_Hit
196.2588	2.5	Window		2.3491	Subsequent_Miss
199.9448	2.5	Belt		1.5630	Subsequent_Hit
203.6973	2.5	Eye		1.3848	Subsequent_Hit
206.9330	2.5	Wood		1.0478	Subsequent_Hit
210.0520	2.5	Thumb		2.0098	Subsequent_Hit
213.3544	2.5	Cream		0.8493	Subsequent_Hit
217.0234	2.5	Camera		1.6344	Subsequent_Hit
220.2604	2.5	Fruit		1.8353	Subsequent_Hit
223.8617	2.5	Ball	NaN	NaN	Subsequent_Hit
227.0808	2.5	Rose		2.3870	Subsequent_Hit
230.2176	2.5	Tomato		1.7280	Subsequent_Hit
233.6189	2.5	Sheet		2.1058	Subsequent_Hit
237.2882	2.5	Rat		1.7605	Subsequent_Hit
241.2911	2.5	Pie		1.3117	Subsequent_Hit
244.7934	2.5	Blood		2.1562	Subsequent_Hit
247.9961	2.5	Flea		1.1588	Subsequent_Hit
251.3163	2.5	Walnut	NaN	NaN	Subsequent_Hit
254.6839	2.5	Spoon		1.6558	Subsequent_Hit
258.0864	2.5	Asparagus		0.9035	Subsequent_Hit
261.9227	2.5	Basin		1.4191	Subsequent_Hit
265.4751	2.5	Blanket		1.2456	Subsequent_Hit
269.0608	2.5	Sugar		0.9629	Subsequent_Miss
272.2299	2.5	Pillow		1.0398	Subsequent_Miss
275.8324	2.5	Thread		1.3016	Subsequent_Hit
279.1679	2.5	Needle		1.4851	Subsequent_Hit
283.1544	2.5	Straw		1.9895	Subsequent_Hit
286.5235	2.5	Ink		1.5702	Subsequent_Hit
290.4258	2.5	Hammer		2.2631	Subsequent_Miss
294.2290	2.5	Snow		0.8707	Subsequent_Hit
297.2827	2.5	Button		1.0191	Subsequent_Hit
301.2507	2.5	Tongue		1.2521	Subsequent_Hit
304.5203	2.5	Soup		1.0748	Subsequent_Hit
308.5398	2.5	Sun		1.1210	Subsequent_Hit
312.2766	2.5	Grape		1.1412	Subsequent_Hit
315.3121	2.5	Ship		2.4165	Subsequent_Miss
318.5965	2.5	Strawberry		2.3742	Subsequent_Hit
322.5663	2.5	Bed		0.8816	Subsequent_Hit
325.8186	2.5	Tea		1.3053	Subsequent_Miss
329.2709	2.5	Brick		1.6328	Subsequent_Hit
332.3721	2.5	Pencil		1.2567	Subsequent_Hit
335.7424	2.5	Jeep		1.2824	Subsequent_Hit
339.3115	2.5	Peach		1.4574	Subsequent_Miss
342.9141	2.5	Jacket		1.3656	Subsequent_Hit
345.9496	2.5	Rice		1.2261	Subsequent_Hit
349.0187	2.5	Plum		1.0920	Subsequent_Hit
