onset	duration	face	response	response_time	trial_type
0.9007	2.5	stimuli/Faces/EMWfemale30neutral.bmp		1.4569	Subsequent_Hit
4.8368	2.5	stimuli/Faces/TMWmale79neutral.bmp		1.5300	Subsequent_Hit
8.0566	2.5	stimuli/Faces/EMWmale33neutral.bmp		1.2822	Subsequent_Hit
11.9253	2.5	stimuli/Faces/EMImale21-2neutral.bmp		1.0456	Subsequent_Miss
15.5111	2.5	stimuli/Faces/TSFWmale71-4neutral.bmp		1.2490	Subsequent_Miss
19.2825	2.5	stimuli/Faces/JWmale65neutral.bmp		1.6071	Subsequent_Hit
22.5989	2.5	stimuli/Faces/EMImale25neutral.bmp		1.1567	Subsequent_Hit
26.0187	2.5	stimuli/Faces/TMBfemale41neutral.bmp		1.3161	Subsequent_Hit
29.3564	2.5	stimuli/Faces/EMWfemale22-3neutral.bmp		2.2974	Subsequent_Hit
32.3898	2.5	stimuli/Faces/TSFBfemale74-2neutral.bmp		1.5998	Subsequent_Hit
35.7766	2.5	stimuli/Faces/TSFBfemale61neutral.bmp		1.9291	Subsequent_Hit
39.4117	2.5	stimuli/Faces/JWmale66neutral.bmp		1.4930	Subsequent_Hit
42.6806	2.5	stimuli/Faces/TSFWmale57neutral.bmp		1.6853	Subsequent_Hit
45.9994	2.5	stimuli/Faces/JWfemale79-4neutral.bmp		1.0764	Subsequent_Hit
49.8518	2.5	stimuli/Faces/JWmale86neutral.bmp		1.1662	Subsequent_Hit
53.4053	2.5	stimuli/Faces/TSFWmale67-2neutral.bmp		2.3275	Subsequent_Hit
56.4740	2.5	stimuli/Faces/EMBmale26neutral.bmp		2.0467	Subsequent_Hit
60.0759	2.5	stimuli/Faces/EMBfemale21-3neutral.bmp		1.1829	Subsequent_Miss
64.0627	2.5	stimuli/Faces/EMIfemale25-2neutral.bmp		1.7958	Subsequent_Hit
67.4823	2.5	stimuli/Faces/TSFWmale42neutral.bmp		1.5555	Subsequent_Hit
71.0196	2.5	stimuli/Faces/EMBfemale25neutral.bmp		1.2740	Subsequent_Hit
74.5875	2.5	stimuli/Faces/EMBfemale22neutral.bmp		2.2414	Subsequent_Hit
78.0567	2.5	stimuli/Faces/EMHmale22neutral.bmp		2.3838	Subsequent_NoResp
81.4935	2.5	stimuli/Faces/JWmale67neutral.bmp		2.1971	Subsequent_Hit
84.7108	2.5	stimuli/Faces/EMBmale20neutral.bmp	NaN	NaN	Subsequent_Hit
88.1486	2.5	stimuli/Faces/TSFBfemale63-2neutral.bmp		1.4832	Subsequent_Miss
92.1495	2.5	stimuli/Faces/TSFWmale88neutral.bmp		1.5483	Subsequent_Hit
95.8540	2.5	stimuli/Faces/JWfemale69-2neutral.bmp		1.3846	Subsequent_Hit
99.2065	2.5	stimuli/Faces/JWfemale74-2neutral.bmp	NaN	NaN	Subsequent_Hit
102.9757	2.5	stimuli/Faces/EMWmale32neutral.bmp		1.9281	Subsequent_Miss
106.5435	2.5	stimuli/Faces/TSFBfemale54neutral.bmp		1.3833	Subsequent_Miss
110.2645	2.5	stimuli/Faces/JWmale69-2neutral.bmp		1.4261	Subsequent_NoResp
114.2819	2.5	stimuli/Faces/TSFWmale77neutral.bmp		1.8846	Subsequent_NoResp
117.9013	2.5	stimuli/Faces/EMBfemale26neutral.bmp		2.0794	Subsequent_Miss
121.5048	2.5	stimuli/Faces/JWmale80neutral.bmp		1.9937	Subsequent_Hit
124.6725	2.5	stimuli/Faces/EMWmale20neutral.bmp		1.8360	Subsequent_Hit
128.5756	2.5	stimuli/Faces/JWfemale77-4neutral.bmp		1.4854	Subsequent_Hit
131.6780	2.5	stimuli/Faces/EMWfemale22neutral.bmp		1.1966	Subsequent_Hit
134.8801	2.5	stimuli/Faces/EMBfemale49neutral.bmp		1.9576	Subsequent_Hit
138.1006	2.5	stimuli/Faces/TSFWmale61neutral.bmp		1.6150	Subsequent_Miss
141.4682	2.5	stimuli/Faces/EMImale23-4neutral.bmp		1.6954	Subsequent_Hit
145.0874	2.5	stimuli/Faces/EMWfemale25neutral.bmp		2.0402	Subsequent_Hit
149.0075	2.5	stimuli/Faces/EMBfemale20neutral.bmp		1.1691	Subsequent_Hit
152.2590	2.5	stimuli/Faces/JWfemale73-2neutral.bmp	NaN	NaN	Subsequent_Hit
156.1955	2.5	stimuli/Faces/TSFBfemale70-2neutral.bmp	NaN	NaN	Subsequent_Hit
160.1649	2.5	stimuli/Faces/TSFWmale71neutral.bmp		1.1996	Subsequent_Hit
163.6359	2.5	stimuli/Faces/JWmale38neutral.bmp		1.0855	Subsequent_Miss
167.4382	2.5	stimuli/Faces/TMBfemale57neutral.bmp		1.9953	Subsequent_Miss
171.1894	2.5	stimuli/Faces/TMWfemale36neutral.bmp		1.9281	Subsequent_Hit
174.7252	2.5	stimuli/Faces/TSFWfemale34neutral.bmp		1.7343	Subsequent_Hit
178.1949	2.5	stimuli/Faces/EMImale25-2neutral.bmp		1.3946	Subsequent_Hit
181.3467	2.5	stimuli/Faces/EMBfemale21-4neutral.bmp		2.0407	Subsequent_Hit
184.4327	2.5	stimuli/Faces/JWfemale77-2neutral.bmp	NaN	NaN	Subsequent_Hit
188.1186	2.5	stimuli/Faces/JWfemale65-2neutral.bmp		0.3479	Subsequent_Miss
191.2710	2.5	stimuli/Faces/JWmale79neutral.bmp		1.3285	Subsequent_Miss
194.7897	2.5	stimuli/Faces/JWfemale70-2neutral.bmp		1.5276	Subsequent_NoResp
197.8253	2.5	stimuli/Faces/Wmale_65.bmp		1.3313	Subsequent_Hit
201.7293	2.5	stimuli/Faces/JWfemale78-6neutral.bmp		1.3092	Subsequent_Hit
205.5819	2.5	stimuli/Faces/EMWmale21-3neutral.bmp		1.8197	Subsequent_Hit
208.9183	2.5	stimuli/Faces/TMWmale32neutral.bmp		1.4101	Subsequent_Hit
212.0701	2.5	stimuli/Faces/JWfemale72-2neutral.bmp		2.4494	Subsequent_Hit
215.2395	2.5	stimuli/Faces/TSFWmale74neutral.bmp		2.4412	Subsequent_Hit
219.1248	2.5	stimuli/Faces/TMWmale34-3neutral.bmp		1.6526	Subsequent_Hit
223.0769	2.5	stimuli/Faces/TMWmale37-2neutral.bmp		1.8546	Subsequent_Hit
226.7978	2.5	stimuli/Faces/JWfemale71-2neutral.bmp		1.4537	Subsequent_Hit
230.3175	2.5	stimuli/Faces/TSFWmale54neutral.bmp		1.8539	Subsequent_Miss
234.1513	2.5	stimuli/Faces/Wmale_55-3.bmp		1.4873	Subsequent_NoResp
238.1208	2.5	stimuli/Faces/TMWfemale34-2neutral.bmp		1.3159	Subsequent_Hit
241.9419	2.5	stimuli/Faces/TMBmale21-3neutral.bmp		1.6587	Subsequent_NoResp
245.2259	2.5	stimuli/Faces/TSFWmale63neutral.bmp		2.0446	Subsequent_Hit
248.9970	2.5	stimuli/Faces/JWfemale78-3neutral.bmp		2.3795	Subsequent_Miss
252.5154	2.5	stimuli/Faces/JWfemale68-2neutral.bmp		1.3381	Subsequent_Hit
256.1672	2.5	stimuli/Faces/EMImale23-6neutral.bmp		2.1482	Subsequent_Hit
259.6216	2.5	stimuli/Faces/TSFBfemale65-2neutral.bmp		1.3039	Subsequent_Hit
263.3223	2.5	stimuli/Faces/TMBmale21neutral.bmp		1.2890	Subsequent_Hit
266.9919	2.5	stimuli/Faces/JWmale70neutral.bmp		1.8036	Subsequent_NoResp
270.0113	2.5	stimuli/Faces/EMImale24-4neutral.bmp		1.5692	Subsequent_Hit
273.1300	2.5	stimuli/Faces/TMWmale20-4neutral.bmp		1.9534	Subsequent_Hit
276.7820	2.5	stimuli/Faces/WBfemale47neutral.bmp		1.3413	Subsequent_Hit
279.8332	2.5	stimuli/Faces/TSFBmale77neutral.bmp		1.3652	Subsequent_Hit
283.6383	2.5	stimuli/Faces/EMBmale55neutral.bmp	NaN	NaN	Subsequent_NoResp
287.3915	2.5	stimuli/Faces/TMWmale34-2neutral.bmp		2.1628	Subsequent_Miss
291.3429	2.5	stimuli/Faces/JWmale89neutral.bmp		1.1734	Subsequent_Hit
294.6439	2.5	stimuli/Faces/JWfemale37neutral.bmp		1.6495	Subsequent_Hit
297.7295	2.5	stimuli/Faces/JWfemale66neutral.bmp	NaN	NaN	Subsequent_NoResp
301.7348	2.5	stimuli/Faces/TSFWmale70neutral.bmp	NaN	NaN	Subsequent_Miss
304.9188	2.5	stimuli/Faces/TMWfemale31neutral.bmp		1.7694	Subsequent_Hit
308.3049	2.5	stimuli/Faces/TSFBfemale65-3neutral.bmp		1.4974	Subsequent_Hit
312.1073	2.5	stimuli/Faces/JWfemale70-4neutral.bmp		1.4981	Subsequent_Miss
315.3601	2.5	stimuli/Faces/TSFHmale65neutral.bmp		2.4292	Subsequent_Miss
318.6281	2.5	stimuli/Faces/EMWfemale20-2neutral.bmp		1.6352	Subsequent_Miss
322.1320	2.5	stimuli/Faces/TSFWmale66-2neutral.bmp		1.4094	Subsequent_Hit
325.8837	2.5	stimuli/Faces/EMWfemale24-2neutral.bmp		1.6237	Subsequent_Hit
328.9525	2.5	stimuli/Faces/EMIfemale25neutral.bmp		1.2799	Subsequent_Hit
332.4217	2.5	stimuli/Faces/Wmale_55-2.bmp		1.9277	Subsequent_Hit
336.2747	2.5	stimuli/Faces/EMBfemale33neutral.bmp		1.4932	Subsequent_Miss
339.9443	2.5	stimuli/Faces/EMIfemale19neutral.bmp	NaN	NaN	Subsequent_Hit
343.0465	2.5	stimuli/Faces/TMBmale18neutral.bmp		2.2368	Subsequent_Hit
346.2479	2.5	stimuli/Faces/EMWmale52neutral.bmp		1.6404	Subsequent_Miss
349.5524	2.5	stimuli/Faces/TSFWmale75-3neutral.bmp		1.4585	Subsequent_Hit
