onset	duration	face	response	response_time	trial_type
1.3343	2.5	stimuli/Faces/TSFWmale79neutral.bmp		1.2995	Subsequent_NoResp
4.5533	2.5	stimuli/Faces/TSFWmale77neutral.bmp		1.8357	Subsequent_Hit
7.9723	2.5	stimuli/Faces/JWfemale77-4neutral.bmp		1.5698	Subsequent_Hit
11.8920	2.5	stimuli/Faces/TMBmale30neutral.bmp		1.3048	Subsequent_NoResp
15.3944	2.5	stimuli/Faces/TMWmale32neutral.bmp		0.9157	Subsequent_Miss
18.7635	2.5	stimuli/Faces/TMWmale34-3neutral.bmp		1.4578	Subsequent_Hit
22.2501	2.5	stimuli/Faces/TSFWmale71-4neutral.bmp		1.6040	Subsequent_Hit
25.8019	2.5	stimuli/Faces/TMBfemale30neutral.bmp		1.0112	Subsequent_NoResp
28.9708	2.5	stimuli/Faces/JWmale70neutral.bmp		1.4782	Subsequent_Hit
32.9904	2.5	stimuli/Faces/JWfemale65-6neutral.bmp	NaN	NaN	Subsequent_Hit
36.8264	2.5	stimuli/Faces/TMBmale21neutral.bmp		0.9786	Subsequent_Hit
40.2956	2.5	stimuli/Faces/EMWmale20neutral.bmp		1.7333	Subsequent_Hit
43.8982	2.5	stimuli/Faces/EMImale23-2neutral.bmp		1.3757	Subsequent_Hit
46.9171	2.5	stimuli/Faces/TSFHmale65neutral.bmp		1.5549	Subsequent_Hit
50.7197	2.5	stimuli/Faces/EMBfemale29neutral.bmp		1.2434	Subsequent_NoResp
53.8221	2.5	stimuli/Faces/Wmale_55-2.bmp		1.6600	Subsequent_Hit
57.0910	2.5	stimuli/Faces/TMBmale49neutral.bmp		1.0589	Subsequent_Hit
60.8270	2.5	stimuli/Faces/EMBfemale20-2neutral.bmp		1.2281	Subsequent_NoResp
64.5464	2.5	stimuli/Faces/TSFWmale46neutral.bmp		1.1197	Subsequent_Hit
68.4325	2.5	stimuli/Faces/TMBmale21-3neutral.bmp		1.3978	Subsequent_NoResp
72.2016	2.5	stimuli/Faces/EMBfemale21-4neutral.bmp		1.4403	Subsequent_Miss
75.6710	2.5	stimuli/Faces/TMBfemale57neutral.bmp		1.6650	Subsequent_Miss
79.6405	2.5	stimuli/Faces/JWmale86neutral.bmp		1.7495	Subsequent_NoResp
83.2092	2.5	stimuli/Faces/EMWfemale21-5neutral.bmp		1.4539	Subsequent_Hit
87.0125	2.5	stimuli/Faces/TMWfemale34-2neutral.bmp		1.2089	Subsequent_Miss
90.8819	2.5	stimuli/Faces/JWmale81-2neutral.bmp		1.3643	Subsequent_NoResp
94.5511	2.5	stimuli/Faces/EMImale24-4neutral.bmp		0.9719	Subsequent_Hit
97.7366	2.5	stimuli/Faces/EMWfemale20-2neutral.bmp		1.5515	Subsequent_Miss
101.0900	2.5	stimuli/Faces/JWmale88neutral.bmp		1.4084	Subsequent_Hit
104.4091	2.5	stimuli/Faces/JWmale79neutral.bmp		1.5471	Subsequent_Hit
107.9275	2.5	stimuli/Faces/TSFWfemale34neutral.bmp		2.2759	Subsequent_NoResp
111.3301	2.5	stimuli/Faces/JWfemale78-3neutral.bmp		1.7050	Subsequent_Hit
114.4328	2.5	stimuli/Faces/EMWfemale34neutral.bmp		1.3434	Subsequent_Hit
117.8512	2.5	stimuli/Faces/TSFWmale70neutral.bmp		1.7209	Subsequent_Hit
121.5539	2.5	stimuli/Faces/EMWfemale22neutral.bmp		1.8812	Subsequent_NoResp
124.9564	2.5	stimuli/Faces/EMImale25-2neutral.bmp		0.9478	Subsequent_Miss
128.3088	2.5	stimuli/Faces/EMWmale32neutral.bmp		1.5085	Subsequent_Hit
131.8446	2.5	stimuli/Faces/TMBmale44neutral.bmp		1.3691	Subsequent_NoResp
135.4308	2.5	stimuli/Faces/JWfemale79-4neutral.bmp		2.1243	Subsequent_Miss
138.8831	2.5	stimuli/Faces/JWfemale48neutral.bmp		0.9880	Subsequent_Hit
142.2688	2.5	stimuli/Faces/TMBmale18neutral.bmp		1.8453	Subsequent_Hit
145.7047	2.5	stimuli/Faces/JWfemale71-5neutral.bmp		1.0624	Subsequent_Hit
149.4573	2.5	stimuli/Faces/JWfemale81-3neutral.bmp		1.4197	Subsequent_Miss
153.1266	2.5	stimuli/Faces/TMWmale33neutral.bmp		0.9774	Subsequent_NoResp
156.6458	2.5	stimuli/Faces/EMWmale33neutral.bmp	NaN	NaN	Subsequent_Hit
160.5484	2.5	stimuli/Faces/TMWmale41neutral.bmp		1.8546	Subsequent_Hit
164.1179	2.5	stimuli/Faces/EMBfemale22-4neutral.bmp		1.8633	Subsequent_NoResp
167.4867	2.5	stimuli/Faces/JWfemale76-3neutral.bmp		1.3134	Subsequent_Hit
171.4231	2.5	stimuli/Faces/EMBfemale20neutral.bmp		1.1950	Subsequent_NoResp
174.4753	2.5	stimuli/Faces/EMWmale40neutral.bmp		1.7268	Subsequent_Miss
178.4783	2.5	stimuli/Faces/JWfemale73-2neutral.bmp		1.3249	Subsequent_Miss
181.5304	2.5	stimuli/Faces/JWfemale70-2neutral.bmp		2.1337	Subsequent_Miss
185.5333	2.5	stimuli/Faces/EMWfemale25neutral.bmp		1.4779	Subsequent_Miss
188.7522	2.5	stimuli/Faces/TMBmale24neutral.bmp		1.6979	Subsequent_Hit
192.0378	2.5	stimuli/Faces/TMWmale71neutral.bmp		1.7483	Subsequent_Hit
195.5903	2.5	stimuli/Faces/EMBmale26neutral.bmp		2.1418	Subsequent_Miss
199.5599	2.5	stimuli/Faces/JWfemale82-2neutral.bmp		1.3470	Subsequent_NoResp
202.7977	2.5	stimuli/Faces/TSFBfemale65-3neutral.bmp		1.1553	Subsequent_Hit
205.9646	2.5	stimuli/Faces/TMBmale41neutral.bmp	NaN	NaN	Subsequent_Hit
209.6169	2.5	stimuli/Faces/WBmale31neutral.bmp		1.0779	Subsequent_Miss
213.3032	2.5	stimuli/Faces/TMHmale18neutral.bmp		1.3518	Subsequent_Hit
217.0558	2.5	stimuli/Faces/EMBfemale25neutral.bmp		1.3472	Subsequent_NoResp
220.6752	2.5	stimuli/Faces/JWfemale69-2neutral.bmp		1.2507	Subsequent_NoResp
224.6614	2.5	stimuli/Faces/TMWmale45neutral.bmp		1.4797	Subsequent_Hit
228.5141	2.5	stimuli/Faces/EMBfemale26neutral.bmp		1.7548	Subsequent_Miss
231.5829	2.5	stimuli/Faces/TMWmale34-4neutral.bmp		1.6147	Subsequent_Hit
234.6517	2.5	stimuli/Faces/JWfemale79neutral.bmp		1.2613	Subsequent_Hit
238.1043	2.5	stimuli/Faces/JWfemale83neutral.bmp		1.5778	Subsequent_Hit
241.7402	2.5	stimuli/Faces/TSFWmale61neutral.bmp		1.4506	Subsequent_NoResp
245.0426	2.5	stimuli/Faces/JWfemale42neutral.bmp		1.8465	Subsequent_Hit
248.5621	2.5	stimuli/Faces/EMBfemale22-3neutral.bmp		2.4150	Subsequent_Miss
252.4144	2.5	stimuli/Faces/JWfemale50neutral.bmp		1.9216	Subsequent_Miss
255.5672	2.5	stimuli/Faces/EMIfemale25-2neutral.bmp		0.9359	Subsequent_Hit
258.6024	2.5	stimuli/Faces/EMBmale20neutral.bmp		0.8477	Subsequent_Hit
261.8047	2.5	stimuli/Faces/JWfemale70-4neutral.bmp		1.3053	Subsequent_Miss
264.9236	2.5	stimuli/Faces/JWfemale77neutral.bmp		1.6824	Subsequent_Hit
268.2450	2.5	stimuli/Faces/TSFBfemale63neutral.bmp		1.3921	Subsequent_Miss
271.9119	2.5	stimuli/Faces/EMWmale52neutral.bmp		1.8151	Subsequent_Miss
275.1142	2.5	stimuli/Faces/Wmale_55-3.bmp		1.1109	Subsequent_Miss
278.7335	2.5	stimuli/Faces/TMWmale79neutral.bmp		1.9814	Subsequent_Miss
282.0025	2.5	stimuli/Faces/TSFWmale74neutral.bmp		1.7844	Subsequent_Hit
285.2881	2.5	stimuli/Faces/EMWmale21-3neutral.bmp		1.4806	Subsequent_Hit
288.4071	2.5	stimuli/Faces/JWfemale74neutral.bmp		1.5427	Subsequent_Hit
292.3098	2.5	stimuli/Faces/TSFWmale87neutral.bmp		1.4063	Subsequent_Miss
296.2459	2.5	stimuli/Faces/TMBmale39neutral.bmp		0.9798	Subsequent_Miss
300.1655	2.5	stimuli/Faces/TSFWmale63neutral.bmp		1.1123	Subsequent_NoResp
303.4015	2.5	stimuli/Faces/TMWfemale49-2neutral.bmp		1.1247	Subsequent_Hit
307.1705	2.5	stimuli/Faces/EMImale25neutral.bmp		1.6135	Subsequent_Miss
310.9565	2.5	stimuli/Faces/TMWmale37-2neutral.bmp		1.9855	Subsequent_Miss
314.0784	2.5	stimuli/Faces/JWfemale72-2neutral.bmp		1.2538	Subsequent_Hit
317.8964	2.5	stimuli/Faces/TSFWmale42neutral.bmp		1.8035	Subsequent_Miss
321.0805	2.5	stimuli/Faces/TSFHfemale64neutral.bmp		1.0034	Subsequent_Hit
324.6831	2.5	stimuli/Faces/TSFAmale68neutral.bmp		1.7319	Subsequent_NoResp
328.6026	2.5	stimuli/Faces/TMWmale25-2neutral.bmp		1.0874	Subsequent_NoResp
331.8893	2.5	stimuli/Faces/JWfemale63-3neutral.bmp		1.2715	Subsequent_Hit
335.6077	2.5	stimuli/Faces/TMWmale22-3neutral.bmp		1.0062	Subsequent_NoResp
338.8598	2.5	stimuli/Faces/TSFBfemale61neutral.bmp		1.0352	Subsequent_Hit
342.5459	2.5	stimuli/Faces/JWfemale67-4neutral.bmp		1.3230	Subsequent_Miss
346.4988	2.5	stimuli/Faces/EMWfemale24-2neutral.bmp		1.2490	Subsequent_Hit
349.6009	2.5	stimuli/Faces/TSFBfemale65neutral.bmp		1.4321	Subsequent_Hit
