onset	duration	word	response	response_time	trial_type
1.1679	2.5	Steak		1.4078	Subsequent_Hit
4.7206	2.5	Jacket		0.9121	Subsequent_Hit
7.8392	2.5	Girl		0.6248	Subsequent_Hit
11.8421	2.5	Milk		0.9606	Subsequent_Hit
14.9112	2.5	Painting		0.6485	Subsequent_Hit
18.4305	2.5	Elbow		0.9982	Subsequent_Hit
22.3493	2.5	Land		0.6173	Subsequent_Hit
25.5522	2.5	Blanket		0.6164	Subsequent_Hit
29.3047	2.5	Onion		0.7904	Subsequent_Hit
32.4569	2.5	Honey		0.5447	Subsequent_Hit
36.1262	2.5	Cement		1.0145	Subsequent_Hit
39.8456	2.5	Lamp		0.7720	Subsequent_Hit
43.6486	2.5	Plum		0.7080	Subsequent_Hit
47.1357	2.5	Orange		0.8968	Subsequent_Miss
50.3033	2.5	Walnut		0.7352	Subsequent_Hit
54.0909	2.5	Chair		0.7206	Subsequent_Hit
57.4252	2.5	Whale		0.7706	Subsequent_Miss
60.4771	2.5	Needle		0.7667	Subsequent_Hit
63.8128	2.5	Flea		0.8798	Subsequent_Hit
67.1986	2.5	Bandage		1.4910	Subsequent_Hit
70.7189	2.5	Bath		0.7847	Subsequent_Hit
74.1203	2.5	Thumb		0.8293	Subsequent_Hit
77.9569	2.5	Ship		0.6447	Subsequent_Hit
81.5924	2.5	Coffee		0.8331	Subsequent_Hit
85.5455	2.5	Basin		2.1510	Subsequent_Miss
89.4982	2.5	Vegetable		0.9815	Subsequent_Hit
93.3507	2.5	Hand		0.7767	Subsequent_Hit
97.1706	2.5	Puddle		1.1948	Subsequent_Hit
100.5727	2.5	Bread		1.5149	Subsequent_Hit
104.2753	2.5	Tent		0.9324	Subsequent_Hit
108.0450	2.5	Cereal		0.7896	Subsequent_Hit
111.6137	2.5	Typewriter		1.2428	Subsequent_Hit
115.4842	2.5	Soup		0.9892	Subsequent_Hit
119.4362	2.5	Blood		0.9434	Subsequent_Hit
122.7720	2.5	Sun		1.4088	Subsequent_Hit
126.7753	2.5	Mountain		0.6181	Subsequent_Hit
130.2110	2.5	Sand		0.9844	Subsequent_Hit
133.4630	2.5	Flag		1.0876	Subsequent_Hit
136.5486	2.5	Cork		1.7299	Subsequent_Hit
139.9848	2.5	Wool		1.1437	Subsequent_Hit
143.3030	2.5	Snake		1.1016	Subsequent_Miss
146.5891	2.5	Pear		1.5284	Subsequent_Hit
150.5757	2.5	Shirt		1.0067	Subsequent_Hit
154.3114	2.5	Walrus		0.9730	Subsequent_Hit
157.3983	2.5	Camera		0.8421	Subsequent_Hit
160.8327	2.5	Strawberry		0.6227	Subsequent_Hit
164.4187	2.5	Sheet		1.0367	Subsequent_Hit
167.9711	2.5	Balloon		0.9145	Subsequent_Hit
171.0406	2.5	Radio		1.2009	Subsequent_Hit
174.2591	2.5	Peach		0.6475	Subsequent_Hit
177.6455	2.5	Beef		1.0058	Subsequent_Miss
181.4978	2.5	Telephone		1.0715	Subsequent_Hit
184.9503	2.5	Eye		0.8019	Subsequent_Hit
188.1688	2.5	Apple		0.6296	Subsequent_Hit
191.9718	2.5	Penny		0.7494	Subsequent_Hit
195.2239	2.5	Van		1.0366	Subsequent_Hit
199.0935	2.5	Bean		1.0879	Subsequent_Hit
202.9466	2.5	Boat		1.2148	Subsequent_Hit
206.5664	2.5	Skin		1.2759	Subsequent_Hit
209.8514	2.5	Fur		0.9130	Subsequent_Hit
212.8874	2.5	Cotton		1.0075	Subsequent_Miss
216.5065	2.5	Skunk		0.7429	Subsequent_Hit
220.2090	2.5	Nose		1.3953	Subsequent_Hit
224.1123	2.5	Pillow		1.0861	Subsequent_Hit
227.3991	2.5	Water		1.2142	Subsequent_Hit
230.9000	2.5	Kettle		1.8594	Subsequent_Hit
234.3690	2.5	Chestnut		1.1226	Subsequent_Hit
237.9720	2.5	Bed		0.8944	Subsequent_Hit
241.3577	2.5	Rock		1.3647	Subsequent_Hit
244.5096	2.5	Grasshopper		0.9747	Subsequent_Hit
248.1792	2.5	Cookie		0.6611	Subsequent_Hit
251.4314	2.5	Garden		0.9668	Subsequent_Hit
254.9671	2.5	Stick		1.0071	Subsequent_Hit
258.1531	2.5	Pin		1.2442	Subsequent_Hit
261.5051	2.5	Cabbage		1.8691	Subsequent_Hit
264.8075	2.5	Egg		0.7799	Subsequent_Hit
267.8263	2.5	Snow		0.7379	Subsequent_Hit
270.9285	2.5	Teeth		1.7557	Subsequent_Hit
274.6315	2.5	Blouse		1.5996	Subsequent_Hit
278.2509	2.5	Mirror		1.5842	Subsequent_Hit
282.1707	2.5	Saucer		0.8545	Subsequent_Hit
285.6726	2.5	Beach		1.1896	Subsequent_Hit
288.7248	2.5	Cake		0.5354	Subsequent_Hit
292.7274	2.5	Sleigh		0.7068	Subsequent_Hit
296.1971	2.5	Tomato		0.9482	Subsequent_Miss
300.0994	2.5	Bag		1.5498	Subsequent_Hit
303.2018	2.5	Necklace		1.1025	Subsequent_Hit
306.7543	2.5	Duck		0.7780	Subsequent_Hit
310.7243	2.5	Jaw		2.4609	Subsequent_Hit
314.4768	2.5	Chicken		0.8093	Subsequent_Hit
317.6455	2.5	Lamb		0.9187	Subsequent_Hit
320.8649	2.5	Tooth		1.2002	Subsequent_Hit
324.5671	2.5	Fruit		0.5921	Subsequent_Hit
328.2202	2.5	Hammer		1.0419	Subsequent_Hit
331.5722	2.5	Clown		0.6930	Subsequent_Hit
334.8252	2.5	Mouse		0.8080	Subsequent_Hit
338.6110	2.5	Weed		0.8830	Subsequent_Hit
341.7460	2.5	Cigarette		0.8492	Subsequent_Hit
344.7492	2.5	Seed		1.0379	Subsequent_Hit
348.6848	2.5	Mattress		0.6733	Subsequent_Hit
