onset	duration	face	response	response_time	trial_type
0.6512	2.5	stimuli/Faces/JWmale83-2neutral.bmp		1.5416	Miss
4.4371	2.5	stimuli/Faces/TMWmale45neutral.bmp		1.0304	CR
8.1064	2.5	stimuli/Faces/TMWmale34-4neutral.bmp		1.2112	CR
11.8091	2.5	stimuli/Faces/JWfemale70-2neutral.bmp		1.2484	CR
15.0948	2.5	stimuli/Faces/JWfemale71-5neutral.bmp		1.2658	Hit
18.9476	2.5	stimuli/Faces/EMWmale20neutral.bmp		0.8030	CR
22.9005	2.5	stimuli/Faces/TMBfemale40neutral.bmp		0.9559	CR
26.1695	2.5	stimuli/Faces/JWmale73neutral.bmp		0.8089	Hit
29.5386	2.5	stimuli/Faces/TMWfemale49-2neutral.bmp		0.6657	Hit
32.5573	2.5	stimuli/Faces/EMIfemale25neutral.bmp		0.7682	Hit
35.7431	2.5	stimuli/Faces/TMWmale71neutral.bmp		0.7552	Hit
39.7129	2.5	stimuli/Faces/JWfemale71-2neutral.bmp		0.6986	FA
43.6319	2.5	stimuli/Faces/EMBfemale29neutral.bmp		1.0084	FA
47.2012	2.5	stimuli/Faces/TSFBfemale62neutral.bmp		1.2082	FA
50.7536	2.5	stimuli/Faces/JWfemale77-2neutral.bmp		1.3270	CR
54.1069	2.5	stimuli/Faces/JWmale83neutral.bmp		1.3995	Miss
57.2084	2.5	stimuli/Faces/JWfemale76-3neutral.bmp		0.7570	Hit
60.6608	2.5	stimuli/Faces/TMWfemale34-2neutral.bmp		0.6395	Hit
63.9299	2.5	stimuli/Faces/TSFWmale68-2neutral.bmp		1.6420	Hit
67.9494	2.5	stimuli/Faces/TSFBfemale50neutral.bmp		1.1610	CR
71.4353	2.5	stimuli/Faces/JWfemale44neutral.bmp		0.7913	Hit
75.3548	2.5	stimuli/Faces/TSFBfemale65neutral.bmp		0.9268	CR
79.2079	2.5	stimuli/Faces/TSFWmale75-3neutral.bmp		1.0616	CR
83.2105	2.5	stimuli/Faces/TSFBfemale70-2neutral.bmp		1.0090	CR
86.3129	2.5	stimuli/Faces/JWmale88neutral.bmp		1.6276	Miss
89.5483	2.5	stimuli/Faces/Wmale_55-2.bmp		0.8313	Hit
92.5836	2.5	stimuli/Faces/EMImale24-4neutral.bmp		1.4268	Miss
95.6190	2.5	stimuli/Faces/EMWmale33neutral.bmp		0.8025	Hit
99.3386	2.5	stimuli/Faces/TSFWmale57neutral.bmp		0.6877	CR
102.9912	2.5	stimuli/Faces/TMWmale19neutral.bmp		1.0396	CR
106.5937	2.5	stimuli/Faces/EMImale21-2neutral.bmp		0.9247	CR
109.7460	2.5	stimuli/Faces/EMHmale22neutral.bmp		0.7765	Hit
113.5154	2.5	stimuli/Faces/EMWfemale21-3neutral.bmp		0.8729	CR
117.2848	2.5	stimuli/Faces/JWfemale70-4neutral.bmp		1.1136	CR
120.3537	2.5	stimuli/Faces/EMWfemale22-3neutral.bmp		1.2557	Miss
123.4400	2.5	stimuli/Faces/TMBmale39neutral.bmp		1.6084	Miss
126.9751	2.5	stimuli/Faces/EMWmale32neutral.bmp		1.0864	CR
130.9779	2.5	stimuli/Faces/EMBfemale20neutral.bmp		0.9394	CR
134.0969	2.5	stimuli/Faces/EMBmale26neutral.bmp		1.1716	Hit
137.5160	2.5	stimuli/Faces/EMWfemale34neutral.bmp		0.6035	Hit
141.2521	2.5	stimuli/Faces/TSFBmale50neutral.bmp		0.8243	CR
144.6878	2.5	stimuli/Faces/JBmale68neutral.bmp		1.4278	Hit
147.9897	2.5	stimuli/Faces/JWmale79neutral.bmp		0.7226	Hit
151.5762	2.5	stimuli/Faces/JWmale66neutral.bmp		1.1863	CR
155.5457	2.5	stimuli/Faces/JWfemale65-6neutral.bmp		1.6438	CR
159.0981	2.5	stimuli/Faces/Wmale_50.bmp		1.4524	CR
162.2170	2.5	stimuli/Faces/TSFBmale77neutral.bmp		1.2316	Hit
166.0191	2.5	stimuli/Faces/JWfemale76-4neutral.bmp		1.0862	CR
169.4722	2.5	stimuli/Faces/EMWfemale20-2neutral.bmp		1.0722	Miss
172.7245	2.5	stimuli/Faces/EMWfemale30neutral.bmp		0.9558	Hit
176.2937	2.5	stimuli/Faces/JWmale65neutral.bmp		0.8045	CR
180.1132	2.5	stimuli/Faces/TMBmale49neutral.bmp		0.7922	CR
183.9492	2.5	stimuli/Faces/JWfemale68-2neutral.bmp		1.3092	CR
187.9021	2.5	stimuli/Faces/JWmale69-2neutral.bmp		1.0603	CR
191.2380	2.5	stimuli/Faces/EMBmale20neutral.bmp		1.2454	Hit
195.2239	2.5	stimuli/Faces/JWmale89neutral.bmp		0.7944	CR
198.4435	2.5	stimuli/Faces/EMWfemale25neutral.bmp		0.8600	Hit
201.6620	2.5	stimuli/Faces/EMBfemale20-2neutral.bmp		0.9492	Hit
205.1645	2.5	stimuli/Faces/TSFWmale54neutral.bmp		0.7930	Hit
208.9172	2.5	stimuli/Faces/JWfemale65-4neutral.bmp		0.7991	CR
211.9694	2.5	stimuli/Faces/EMBfemale49neutral.bmp		1.5150	Hit
215.4385	2.5	stimuli/Faces/TSFBfemale54neutral.bmp		1.3847	Hit
219.3747	2.5	stimuli/Faces/EMImale23-6neutral.bmp		0.8488	CR
222.6940	2.5	stimuli/Faces/EMBfemale22-4neutral.bmp		0.9815	Miss
226.0121	2.5	stimuli/Faces/JWfemale74neutral.bmp		1.2623	Miss
229.1817	2.5	stimuli/Faces/TSFBfemale63neutral.bmp		1.3877	Hit
232.6010	2.5	stimuli/Faces/EMImale24-2neutral.bmp		1.1874	Hit
236.2702	2.5	stimuli/Faces/WBfemale47neutral.bmp		0.6861	CR
239.4391	2.5	stimuli/Faces/TMWfemale37neutral.bmp		1.0662	Hit
243.1415	2.5	stimuli/Faces/JWfemale50neutral.bmp		1.9979	CR
246.9445	2.5	stimuli/Faces/EMWfemale21-5neutral.bmp		1.4719	CR
250.3301	2.5	stimuli/Faces/JWfemale66neutral.bmp		0.9263	Hit
254.2001	2.5	stimuli/Faces/TMWmale79neutral.bmp		1.0542	CR
257.8190	2.5	stimuli/Faces/TSFBfemale67neutral.bmp		0.7703	CR
261.0213	2.5	stimuli/Faces/TSFWmale88neutral.bmp		1.2729	Miss
264.7408	2.5	stimuli/Faces/TSFWmale61neutral.bmp		0.7665	CR
267.9427	2.5	stimuli/Faces/TMWmale34-2neutral.bmp		1.2886	Hit
271.0784	2.5	stimuli/Faces/EMBfemale21neutral.bmp		1.6238	Miss
274.9646	2.5	stimuli/Faces/TMBmale30neutral.bmp		0.8878	CR
278.2167	2.5	stimuli/Faces/EMWfemale24-2neutral.bmp		1.1107	Hit
281.6861	2.5	stimuli/Faces/TMWmale37neutral.bmp		0.6693	Hit
285.3053	2.5	stimuli/Faces/JWmale67neutral.bmp		1.2010	CR
288.6744	2.5	stimuli/Faces/TSFWmale66-2neutral.bmp		0.6920	Hit
292.3270	2.5	stimuli/Faces/TMBmale21-3neutral.bmp		1.0344	FA
295.3959	2.5	stimuli/Faces/TSFWmale87neutral.bmp		0.8525	Hit
299.2986	2.5	stimuli/Faces/JWfemale37neutral.bmp		0.7957	CR
303.2015	2.5	stimuli/Faces/TMBfemale33neutral.bmp		1.1300	CR
306.6039	2.5	stimuli/Faces/TSFWmale71-4neutral.bmp		1.0475	Hit
310.4739	2.5	stimuli/Faces/JWmale71neutral.bmp		2.3155	CR
313.8263	2.5	stimuli/Faces/TSFWfemale52-2neutral.bmp		1.1659	Hit
317.5118	2.5	stimuli/Faces/EMBfemale26neutral.bmp		1.1394	CR
321.0308	2.5	stimuli/Faces/JWfemale64-3neutral.bmp		0.9885	CR
324.7835	2.5	stimuli/Faces/JWfemale83neutral.bmp		1.1990	CR
328.0859	2.5	stimuli/Faces/TMWmale22-3neutral.bmp		0.9634	Hit
331.9056	2.5	stimuli/Faces/WBmale31neutral.bmp		1.1607	CR
335.4080	2.5	stimuli/Faces/JWfemale82-2neutral.bmp		0.9283	Hit
339.0438	2.5	stimuli/Faces/TMWmale20-4neutral.bmp		0.8294	CR
342.4463	2.5	stimuli/Faces/TMWmale33neutral.bmp		1.3339	Hit
345.9654	2.5	stimuli/Faces/JWfemale80-4neutral.bmp		1.0009	Miss
349.5682	2.5	stimuli/Faces/EMBfemale33neutral.bmp		0.7201	CR
