onset	duration	face	response	response_time	trial_type
1.2198	2.5	stimuli/Faces/TSFBfemale78-2neutral.bmp		1.8666	CR
4.4865	2.5	stimuli/Faces/TMBfemale57neutral.bmp		0.8828	Hit
8.2752	2.5	stimuli/Faces/JWfemale70-2neutral.bmp		2.4272	CR
11.7427	2.5	stimuli/Faces/JWmale76neutral.bmp		0.7396	Hit
15.3111	2.5	stimuli/Faces/TSFWmale37neutral.bmp		0.9502	CR
18.5147	2.5	stimuli/Faces/TMWfemale34-2neutral.bmp		0.7076	Hit
22.3669	2.5	stimuli/Faces/TSFBfemale63neutral.bmp		1.1645	CR
26.1855	2.5	stimuli/Faces/EMBfemale21-3neutral.bmp		1.5069	FA
29.2900	2.5	stimuli/Faces/TMWfemale40neutral.bmp		2.2674	Miss
32.6425	2.5	stimuli/Faces/EMBfemale21-2neutral.bmp		0.7320	Hit
36.3949	2.5	stimuli/Faces/JWfemale74neutral.bmp		1.2596	CR
40.2460	2.5	stimuli/Faces/TMBfemale30neutral.bmp		1.7973	CR
43.2669	2.5	stimuli/Faces/EMIfemale26neutral.bmp		0.6546	Hit
46.7003	2.5	stimuli/Faces/TMBmale49neutral.bmp		1.2949	Hit
50.5709	2.5	stimuli/Faces/TSFWmale74neutral.bmp		1.4297	CR
54.2739	2.5	stimuli/Faces/EMWfemale18-2neutral.bmp		1.3604	CR
57.5750	2.5	stimuli/Faces/TMBmale41neutral.bmp		1.1256	Hit
60.6103	2.5	stimuli/Faces/TSFWmale87neutral.bmp		1.2881	Hit
63.6637	2.5	stimuli/Faces/TSFWmale75-3neutral.bmp		0.9467	Hit
67.5678	2.5	stimuli/Faces/TSFBfemale65-2neutral.bmp		2.2286	CR
71.2011	2.5	stimuli/Faces/TMBfemale51neutral.bmp		0.8749	CR
74.4044	2.5	stimuli/Faces/TMWmale34neutral.bmp		0.7918	Hit
78.3238	2.5	stimuli/Faces/TMBfemale40neutral.bmp		1.3185	CR
81.5918	2.5	stimuli/Faces/JWfemale79neutral.bmp		1.5604	Miss
85.3441	2.5	stimuli/Faces/JWfemale81-3neutral.bmp		1.7589	FA
89.2302	2.5	stimuli/Faces/TSFWmale71neutral.bmp		1.7921	CR
92.3836	2.5	stimuli/Faces/TSFWfemale52-2neutral.bmp		1.1758	Hit
96.1038	2.5	stimuli/Faces/TSFWmale46neutral.bmp		0.8355	CR
99.3556	2.5	stimuli/Faces/TSFWmale67-2neutral.bmp		2.1687	Miss
102.4738	2.5	stimuli/Faces/TSFBfemale50neutral.bmp		0.9905	Hit
106.4770	2.5	stimuli/Faces/EMBmale26neutral.bmp	NaN	NaN	NoResp
110.4314	2.5	stimuli/Faces/TMBmale44neutral.bmp		0.6948	FA
113.5167	2.5	stimuli/Faces/EMWfemale34neutral.bmp		1.0967	Hit
117.1168	2.5	stimuli/Faces/JWfemale42neutral.bmp		1.6876	CR
120.1863	2.5	stimuli/Faces/TMWfemale36neutral.bmp		0.8981	Hit
123.8416	2.5	stimuli/Faces/EMBfemale20neutral.bmp		1.1308	CR
127.4587	2.5	stimuli/Faces/EMImale25-2neutral.bmp		1.2179	FA
130.8605	2.5	stimuli/Faces/TSFWmale70neutral.bmp		1.6791	Hit
134.8660	2.5	stimuli/Faces/EMHmale22neutral.bmp		1.3455	CR
138.0491	2.5	stimuli/Faces/EMIfemale25neutral.bmp		1.1440	Hit
141.2850	2.5	stimuli/Faces/EMWmale20neutral.bmp		0.9792	Hit
144.7373	2.5	stimuli/Faces/JWmale71neutral.bmp		1.3790	Miss
148.4067	2.5	stimuli/Faces/JWmale66neutral.bmp		0.8196	CR
151.5607	2.5	stimuli/Faces/TMBmale18neutral.bmp		1.7037	Miss
155.2447	2.5	stimuli/Faces/TSFBfemale61neutral.bmp		0.8566	CR
158.5640	2.5	stimuli/Faces/TSFWmale88neutral.bmp		2.3873	Miss
162.1182	2.5	stimuli/Faces/JWmale86neutral.bmp		0.9122	CR
165.8876	2.5	stimuli/Faces/JWfemale80-4neutral.bmp		2.0569	CR
169.2905	2.5	stimuli/Faces/JBmale68neutral.bmp		1.0017	Hit
172.7741	2.5	stimuli/Faces/EMWfemale21-3neutral.bmp		1.7865	Hit
176.6127	2.5	stimuli/Faces/Wmale_65.bmp		1.0145	CR
180.4296	2.5	stimuli/Faces/TMHmale18neutral.bmp		0.8640	CR
184.2998	2.5	stimuli/Faces/JWfemale48neutral.bmp		1.6375	CR
188.0185	2.5	stimuli/Faces/TMBfemale33-2neutral.bmp		0.8699	FA
191.9220	2.5	stimuli/Faces/TSFWmale42neutral.bmp	NaN	NaN	NoResp
195.7248	2.5	stimuli/Faces/JWmale80neutral.bmp		1.6805	FA
199.4274	2.5	stimuli/Faces/JWfemale77neutral.bmp		1.9738	CR
202.7122	2.5	stimuli/Faces/TMWfemale43neutral.bmp		1.3301	Miss
205.9476	2.5	stimuli/Faces/JWfemale78neutral.bmp		1.1146	Miss
209.2835	2.5	stimuli/Faces/TMWmale37neutral.bmp		1.1028	Hit
213.2379	2.5	stimuli/Faces/TMBmale21neutral.bmp		1.0223	CR
216.4218	2.5	stimuli/Faces/TSFWfemale34neutral.bmp		1.1857	Hit
219.8913	2.5	stimuli/Faces/JWfemale39neutral.bmp		1.2050	Hit
223.4117	2.5	stimuli/Faces/TSFHfemale64neutral.bmp		1.0154	CR
226.9137	2.5	stimuli/Faces/Wmale_50.bmp		1.9147	Hit
230.1322	2.5	stimuli/Faces/EMImale23-2neutral.bmp		1.7881	Miss
233.7361	2.5	stimuli/Faces/JWfemale69-2neutral.bmp		0.6760	CR
237.7049	2.5	stimuli/Faces/Wmale_55-3.bmp		0.6932	CR
240.8234	2.5	stimuli/Faces/EMWmale19-3neutral.bmp		2.0780	Miss
244.2762	2.5	stimuli/Faces/EMImale24-2neutral.bmp		0.7691	Miss
247.7954	2.5	stimuli/Faces/EMImale23-6neutral.bmp		0.9388	Hit
250.8642	2.5	stimuli/Faces/EMBfemale22neutral.bmp		1.3781	Hit
254.7996	2.5	stimuli/Faces/TMWmale20-4neutral.bmp		1.3697	CR
257.9036	2.5	stimuli/Faces/EMBfemale29neutral.bmp		1.5948	Miss
261.5546	2.5	stimuli/Faces/TMWmale30neutral.bmp		1.1227	CR
265.1073	2.5	stimuli/Faces/JWfemale72-2neutral.bmp		1.3961	FA
268.9766	2.5	stimuli/Faces/TSFBfemale65-3neutral.bmp		1.0349	CR
272.4801	2.5	stimuli/Faces/EMWmale33neutral.bmp		1.1422	Hit
275.6486	2.5	stimuli/Faces/JWfemale78-3neutral.bmp		1.2416	Hit
279.2840	2.5	stimuli/Faces/JWmale38neutral.bmp		1.6703	CR
282.6864	2.5	stimuli/Faces/JWfemale73-2neutral.bmp		0.8171	Hit
285.8912	2.5	stimuli/Faces/JWfemale65-4neutral.bmp		0.9202	Hit
289.2577	2.5	stimuli/Faces/TSFWmale68-2neutral.bmp		0.9456	Hit
293.2274	2.5	stimuli/Faces/TSFWmale66-2neutral.bmp		1.4769	CR
296.7990	2.5	stimuli/Faces/TSFAmale68neutral.bmp		1.1116	CR
300.1491	2.5	stimuli/Faces/TMWmale32neutral.bmp		1.3071	Hit
303.5693	2.5	stimuli/Faces/JWmale69-2neutral.bmp		1.8169	Hit
306.8706	2.5	stimuli/Faces/EMBmale20neutral.bmp		1.7627	Miss
310.4063	2.5	stimuli/Faces/TMWmale79neutral.bmp		1.0992	CR
313.4586	2.5	stimuli/Faces/JWmale83neutral.bmp		1.2580	Miss
317.1271	2.5	stimuli/Faces/EMBfemale21-4neutral.bmp		1.4910	FA
320.9473	2.5	stimuli/Faces/TMWfemale31neutral.bmp		1.2831	CR
324.5166	2.5	stimuli/Faces/TMWmale37-2neutral.bmp		1.0036	CR
328.4712	2.5	stimuli/Faces/WBmale31neutral.bmp		0.9411	CR
331.8397	2.5	stimuli/Faces/JWfemale70-4neutral.bmp		0.6667	Hit
335.1425	2.5	stimuli/Faces/TMBmale21-3neutral.bmp		2.4291	Miss
338.2764	2.5	stimuli/Faces/EMWfemale20-2neutral.bmp		1.0838	Hit
341.6620	2.5	stimuli/Faces/JWfemale79-4neutral.bmp		1.1533	Miss
345.6817	2.5	stimuli/Faces/TMBmale39neutral.bmp		0.8936	CR
349.4516	2.5	stimuli/Faces/TSFBfemale63-2neutral.bmp		1.5008	CR
