onset	duration	word	response	response_time	trial_type
1.3345	2.5	Rose		1.1002	Subsequent_Hit
5.1038	2.5	Bath		0.9909	Subsequent_Hit
8.3729	2.5	Potato		1.0320	Subsequent_Hit
12.2590	2.5	Car		0.8649	Subsequent_Hit
15.7949	2.5	Pants		1.0108	Subsequent_Hit
19.0472	2.5	Fruit		0.7246	Subsequent_Hit
22.6497	2.5	Shark		1.2001	Subsequent_Hit
25.7023	2.5	Mattress		0.8766	Subsequent_Hit
29.4049	2.5	Toe		0.9810	Subsequent_Hit
33.1074	2.5	Beach		0.6513	Subsequent_Hit
36.6268	2.5	Meal		0.7411	Subsequent_Hit
39.6291	2.5	Stew		1.1698	Subsequent_Hit
42.8306	2.5	Jacket		1.2802	Subsequent_Hit
46.5508	2.5	Chair		1.0410	Subsequent_Hit
50.2034	2.5	Ceiling		0.9684	Subsequent_Hit
54.0560	2.5	Sheet		0.9417	Subsequent_Hit
57.7084	2.5	Collar		1.3763	Subsequent_Hit
61.0442	2.5	Snow		1.7636	Subsequent_Hit
64.6481	2.5	Stone		1.2526	Subsequent_Hit
67.9493	2.5	Tiger		0.8534	Subsequent_Hit
71.9188	2.5	Pie		0.7049	Subsequent_Hit
75.4212	2.5	Stomach		0.9059	Subsequent_Hit
79.3740	2.5	Chestnut		1.0666	Subsequent_Hit
83.1936	2.5	Mud		0.6560	Subsequent_Hit
87.0961	2.5	Land		0.7264	Subsequent_Hit
90.8985	2.5	Onion		1.5234	Subsequent_Hit
94.2681	2.5	Harbour		0.8496	Subsequent_Hit
97.3869	2.5	Bandage		1.2937	Subsequent_Hit
100.7734	2.5	Bean		1.0033	Subsequent_Hit
104.3421	2.5	Sleigh		1.3405	Subsequent_Hit
108.3283	2.5	Radio		1.3314	Subsequent_Hit
111.8807	2.5	Puddle		0.9409	Subsequent_Hit
115.4835	2.5	Honey		0.6344	Subsequent_Hit
119.0693	2.5	Cork		1.4442	Subsequent_Hit
122.2894	2.5	Jersey		0.6853	Subsequent_Hit
125.4902	2.5	Bracelet		1.4904	Subsequent_Hit
128.7096	2.5	Birch		1.1710	Subsequent_Hit
132.0788	2.5	Hand		0.9157	Subsequent_Hit
135.4978	2.5	Thumb		1.2887	Subsequent_Hit
138.8013	2.5	Bread		1.9273	Subsequent_Hit
142.2536	2.5	Hammer		1.2903	Subsequent_Hit
145.8886	2.5	Skunk		0.7181	Subsequent_Hit
149.5578	2.5	Banana		0.6978	Subsequent_Hit
152.6602	2.5	Pond		1.1892	Subsequent_Hit
156.5293	2.5	Apple		0.6284	Subsequent_Hit
159.8667	2.5	Blouse		1.6189	Subsequent_Hit
163.8685	2.5	Book		1.8031	Subsequent_Hit
167.0205	2.5	Beetle		0.8831	Subsequent_Hit
170.9228	2.5	Film		0.6588	Subsequent_Hit
174.6260	2.5	Thread		0.8894	Subsequent_Hit
178.3297	2.5	Rocket		0.6488	Subsequent_Hit
181.4976	2.5	Teeth		0.9600	Subsequent_Hit
185.5004	2.5	Lamb		0.6511	Subsequent_Hit
189.4530	2.5	Ice		0.7300	Subsequent_Hit
192.5556	2.5	Saucer		1.2319	Subsequent_Hit
195.6745	2.5	Butter		0.7131	Subsequent_Hit
199.6106	2.5	Tooth		1.0170	Subsequent_Hit
203.5138	2.5	Tea		0.9598	Subsequent_Hit
207.2825	2.5	Strawberry		0.5029	Subsequent_Hit
210.3348	2.5	Pickle		0.9877	Subsequent_Hit
213.5035	2.5	Grape		0.7430	Subsequent_Hit
217.0562	2.5	Gravy		0.8522	Subsequent_Hit
220.5087	2.5	Umbrella		1.0556	Subsequent_Hit
224.1782	2.5	Pillow		0.8143	Subsequent_Hit
227.4803	2.5	Elbow		1.4352	Subsequent_Hit
230.9996	2.5	Wool		0.9868	Subsequent_Hit
234.2854	2.5	Beef		0.6100	Subsequent_Hit
238.0712	2.5	Asparagus		0.7331	Subsequent_Hit
241.3568	2.5	Knife		0.9106	Subsequent_Hit
244.4427	2.5	Rock		0.7718	Subsequent_Miss
247.7951	2.5	Cake		0.9993	Subsequent_Hit
251.2309	2.5	Fur		0.9736	Subsequent_Hit
254.7335	2.5	Lemonade		0.7071	Subsequent_Hit
257.8033	2.5	Cabbage		0.8031	Subsequent_Hit
261.2213	2.5	Shirt		0.8421	Subsequent_Hit
264.4737	2.5	Frost		1.0257	Subsequent_Hit
267.5276	2.5	Seed		1.0409	Subsequent_Hit
270.6617	2.5	Blood		0.7556	Subsequent_Hit
273.8467	2.5	Blanket		0.7659	Subsequent_Hit
277.3329	2.5	Grasshopper		0.9636	Subsequent_Hit
280.5365	2.5	Peach		0.6431	Subsequent_Hit
284.2211	2.5	Rat		0.7182	Subsequent_Hit
287.6736	2.5	Soup		0.6098	Subsequent_Hit
291.6933	2.5	Hat		0.7170	Subsequent_Hit
295.3126	2.5	Penny		0.8249	Subsequent_Hit
299.1153	2.5	Sugar		0.5746	Subsequent_Hit
303.0348	2.5	Eye		0.7027	Subsequent_Hit
307.0046	2.5	Straw		1.5318	Subsequent_Hit
310.8561	2.5	Shrimp		0.9341	Subsequent_Hit
314.2262	2.5	Window		1.1410	Subsequent_Hit
317.9610	2.5	Sand		0.8512	Subsequent_Hit
321.7649	2.5	Weed		0.9624	Subsequent_Hit
324.7849	2.5	Water		1.0909	Subsequent_Hit
328.6212	2.5	Walnut		0.7743	Subsequent_Hit
331.6720	2.5	Rum		0.9375	Subsequent_Miss
335.2412	2.5	Flag		0.7432	Subsequent_Hit
338.6281	2.5	Spoon		1.1773	Subsequent_Hit
342.3642	2.5	Snake		1.1862	Subsequent_Hit
345.8321	2.5	Brick		0.9742	Subsequent_Hit
349.1009	2.5	Clothes		0.6683	Subsequent_Hit
