onset	duration	face	response	response_time	trial_type
0.7172	2.5	stimuli/Faces/WBfemale47neutral.bmp		1.0225	Hit
3.8189	2.5	stimuli/Faces/EMWfemale22-3neutral.bmp		0.8227	FA
6.9892	2.5	stimuli/Faces/EMImale21-2neutral.bmp		1.6919	Hit
10.0073	2.5	stimuli/Faces/JWfemale78-6neutral.bmp		1.0179	FA
13.8106	2.5	stimuli/Faces/TSFWfemale52-2neutral.bmp	NaN	0.8636	Hit
16.8452	2.5	stimuli/Faces/EMImale23-2neutral.bmp		1.6589	Hit
20.4994	2.5	stimuli/Faces/TSFWmale54neutral.bmp		1.2097	FA
23.5523	2.5	stimuli/Faces/EMWmale21-3neutral.bmp		1.4615	CR
27.0203	2.5	stimuli/Faces/JWfemale78neutral.bmp		0.9638	Hit
30.1731	2.5	stimuli/Faces/TSFWmale79neutral.bmp		1.3429	Miss
33.4741	2.5	stimuli/Faces/TMBmale49neutral.bmp		1.6170	FA
37.4104	2.5	stimuli/Faces/JWfemale74-2neutral.bmp		2.0492	FA
40.6958	2.5	stimuli/Faces/TSFBfemale65neutral.bmp		1.2664	Hit
44.6666	2.5	stimuli/Faces/TSFAmale68neutral.bmp	NaN	1.2450	Hit
48.0520	2.5	stimuli/Faces/TMWmale33neutral.bmp		1.7387	Hit
51.4035	2.5	stimuli/Faces/TSFWmale75-3neutral.bmp	NaN	1.4074	CR
54.9230	2.5	stimuli/Faces/TMWfemale43neutral.bmp		1.4152	Miss
58.5919	2.5	stimuli/Faces/TSFBfemale74-2neutral.bmp		1.2181	CR
61.7276	2.5	stimuli/Faces/JWfemale78-3neutral.bmp		1.0084	CR
65.6638	2.5	stimuli/Faces/TMWmale43neutral.bmp		2.3587	Hit
69.5999	2.5	stimuli/Faces/EMWmale19-3neutral.bmp		1.2485	FA
73.4193	2.5	stimuli/Faces/JWfemale79-4neutral.bmp		1.2758	Miss
76.9888	2.5	stimuli/Faces/TMWmale20-4neutral.bmp		1.6774	FA
80.4745	2.5	stimuli/Faces/TMBmale30neutral.bmp		1.6869	CR
84.3447	2.5	stimuli/Faces/Wmale_55.bmp		2.3612	CR
87.6462	2.5	stimuli/Faces/TSFWmale70neutral.bmp		1.1426	Miss
90.7826	2.5	stimuli/Faces/EMImale24-4neutral.bmp		1.1895	CR
94.3010	2.5	stimuli/Faces/EMBfemale21-2neutral.bmp		1.2860	CR
97.7221	2.5	stimuli/Faces/Wmale_50.bmp		1.2467	CR
101.3747	2.5	stimuli/Faces/TMWfemale31neutral.bmp		1.1074	CR
104.4583	2.5	stimuli/Faces/JWfemale77-4neutral.bmp	NaN	1.2464	CR
108.2611	2.5	stimuli/Faces/TMBmale18neutral.bmp		0.9936	Hit
111.8137	2.5	stimuli/Faces/TMWmale34neutral.bmp		1.4903	CR
115.1828	2.5	stimuli/Faces/JWfemale65-6neutral.bmp		1.8491	FA
118.6518	2.5	stimuli/Faces/TMWmale22-3neutral.bmp	NaN	NaN	NoResp
122.1541	2.5	stimuli/Faces/EMBfemale22-2neutral.bmp		1.0015	CR
125.2900	2.5	stimuli/Faces/TMWfemale40neutral.bmp		1.2564	CR
129.1926	2.5	stimuli/Faces/EMBfemale25neutral.bmp		0.9593	CR
133.1623	2.5	stimuli/Faces/EMBfemale49neutral.bmp		1.1640	FA
136.5815	2.5	stimuli/Faces/JWfemale48neutral.bmp		1.4646	Miss
140.2673	2.5	stimuli/Faces/JWmale79neutral.bmp		0.8904	Hit
143.4362	2.5	stimuli/Faces/JWfemale74neutral.bmp		1.6107	Hit
146.7556	2.5	stimuli/Faces/TSFBfemale63-2neutral.bmp		1.6826	FA
150.4757	2.5	stimuli/Faces/JWfemale39neutral.bmp		1.6078	Miss
153.7275	2.5	stimuli/Faces/JWfemale70-4neutral.bmp		1.4308	Miss
157.4793	2.5	stimuli/Faces/JWmale65neutral.bmp		0.8061	Hit
161.3498	2.5	stimuli/Faces/EMWfemale18-2neutral.bmp		1.0333	CR
164.6684	2.5	stimuli/Faces/TSFBfemale54neutral.bmp		1.0593	CR
168.6549	2.5	stimuli/Faces/EMIfemale25neutral.bmp		1.2783	CR
172.4089	2.5	stimuli/Faces/TSFHmale65neutral.bmp		0.9069	CR
176.2451	2.5	stimuli/Faces/EMBmale55neutral.bmp		0.9313	CR
179.3286	2.5	stimuli/Faces/JWfemale70-2neutral.bmp		1.0988	Miss
182.3637	2.5	stimuli/Faces/JWmale38neutral.bmp		0.9963	Hit
185.5996	2.5	stimuli/Faces/TMWmale34-4neutral.bmp	NaN	2.1855	CR
189.2855	2.5	stimuli/Faces/JWfemale73-2neutral.bmp		0.9740	Hit
193.0048	2.5	stimuli/Faces/EMBfemale26neutral.bmp		1.0457	Hit
197.0086	2.5	stimuli/Faces/TMWfemale37neutral.bmp		0.9141	CR
200.2785	2.5	stimuli/Faces/TSFWmale66-2neutral.bmp		1.4163	Hit
203.9129	2.5	stimuli/Faces/EMWmale40neutral.bmp	NaN	1.5609	Hit
207.0984	2.5	stimuli/Faces/EMBfemale22-3neutral.bmp		1.2383	Miss
210.8841	2.5	stimuli/Faces/TMBmale24neutral.bmp		1.4098	CR
214.5546	2.5	stimuli/Faces/TMBfemale51neutral.bmp		1.5992	FA
217.7396	2.5	stimuli/Faces/TMBfemale30neutral.bmp		0.8034	Hit
220.8584	2.5	stimuli/Faces/EMBfemale22-4neutral.bmp		1.6847	FA
224.1274	2.5	stimuli/Faces/JWfemale65-4neutral.bmp	NaN	1.5199	Hit
227.3464	2.5	stimuli/Faces/EMImale23-4neutral.bmp	NaN	1.2129	Miss
231.1156	2.5	stimuli/Faces/JWfemale66neutral.bmp	NaN	0.9167	CR
234.2346	2.5	stimuli/Faces/JWmale64neutral.bmp		0.9300	Miss
237.8041	2.5	stimuli/Faces/EMWfemale21-3neutral.bmp	NaN	1.4446	Hit
241.3413	2.5	stimuli/Faces/TMBfemale57neutral.bmp		1.7799	Hit
244.9260	2.5	stimuli/Faces/TSFBfemale63neutral.bmp	NaN	0.9940	Miss
248.2615	2.5	stimuli/Faces/JWfemale79neutral.bmp		1.1753	Hit
252.0308	2.5	stimuli/Faces/TMWfemale36neutral.bmp		1.1636	Hit
255.8503	2.5	stimuli/Faces/JWfemale65-2neutral.bmp	NaN	0.9342	FA
259.1190	2.5	stimuli/Faces/TMBfemale33neutral.bmp		1.2531	Hit
262.3381	2.5	stimuli/Faces/TMWmale71neutral.bmp	NaN	1.0588	Miss
265.6738	2.5	stimuli/Faces/JWmale88neutral.bmp	NaN	1.7462	CR
269.5934	2.5	stimuli/Faces/TSFWmale71-4neutral.bmp		0.8949	CR
273.5795	2.5	stimuli/Faces/JWmale80neutral.bmp	NaN	1.0830	CR
276.6150	2.5	stimuli/Faces/TSFWmale61neutral.bmp		1.2641	CR
279.9839	2.5	stimuli/Faces/TSFWmale37neutral.bmp	NaN	1.0527	CR
283.5865	2.5	stimuli/Faces/TMWmale34-3neutral.bmp		0.9348	Hit
287.4728	2.5	stimuli/Faces/JWfemale86-2neutral.bmp		0.9262	FA
291.1752	2.5	stimuli/Faces/EMWfemale24-2neutral.bmp	NaN	0.7975	Hit
294.7780	2.5	stimuli/Faces/TMWmale41neutral.bmp		1.2020	FA
298.6311	2.5	stimuli/Faces/EMWfemale20-2neutral.bmp		1.0155	Hit
302.0333	2.5	stimuli/Faces/TMBfemale37neutral.bmp		1.3844	Miss
306.0529	2.5	stimuli/Faces/EMWfemale25neutral.bmp	NaN	1.5362	Miss
309.5057	2.5	stimuli/Faces/TSFWmale57neutral.bmp		0.9644	Hit
312.9086	2.5	stimuli/Faces/EMWfemale22neutral.bmp		1.7056	Miss
316.3451	2.5	stimuli/Faces/JWmale83-2neutral.bmp		1.4155	CR
319.9815	2.5	stimuli/Faces/EMWmale19neutral.bmp		1.2248	CR
323.4817	2.5	stimuli/Faces/EMBfemale29neutral.bmp		NaN	NoResp
327.1016	2.5	stimuli/Faces/JBmale68neutral.bmp		0.9227	CR
330.5550	2.5	stimuli/Faces/TSFBfemale65-3neutral.bmp		1.4591	Hit
334.2910	2.5	stimuli/Faces/JWmale86neutral.bmp		0.9760	Miss
338.2112	2.5	stimuli/Faces/TMWmale45neutral.bmp		0.8310	CR
342.0621	2.5	stimuli/Faces/JWfemale76-3neutral.bmp		0.8322	Miss
345.5811	2.5	stimuli/Faces/JWfemale60neutral.bmp		1.7011	Hit
349.4673	2.5	stimuli/Faces/JWfemale67-4neutral.bmp		0.8678	CR
