onset	duration	face	response	response_time	trial_type
1.3509	2.5	stimuli/Faces/JWmale79neutral.bmp		1.6270	FA
4.9048	2.5	stimuli/Faces/EMWmale20neutral.bmp		0.7770	FA
8.7230	2.5	stimuli/Faces/TMWmale33neutral.bmp		0.8127	FA
11.9746	2.5	stimuli/Faces/TSFWmale71neutral.bmp		0.5900	Hit
15.3459	2.5	stimuli/Faces/TMWmale41neutral.bmp		0.6097	Hit
19.2143	2.5	stimuli/Faces/JWmale86neutral.bmp		1.0124	CR
22.7843	2.5	stimuli/Faces/TSFWfemale34neutral.bmp		1.2794	CR
26.1026	2.5	stimuli/Faces/EMWfemale30neutral.bmp		0.9242	Hit
29.8881	2.5	stimuli/Faces/TMWmale19neutral.bmp		1.1448	CR
33.4088	2.5	stimuli/Faces/EMImale25neutral.bmp		0.6999	Hit
36.6597	2.5	stimuli/Faces/WBmale31neutral.bmp		0.7020	Hit
40.4122	2.5	stimuli/Faces/TSFWmale66-2neutral.bmp		1.3646	CR
43.9495	2.5	stimuli/Faces/TSFWmale68-2neutral.bmp		0.9006	FA
47.6006	2.5	stimuli/Faces/EMBfemale22neutral.bmp		1.3521	CR
50.8877	2.5	stimuli/Faces/EMBfemale20-2neutral.bmp		0.6372	Hit
54.0887	2.5	stimuli/Faces/TMWmale34-2neutral.bmp		0.8779	Hit
57.9922	2.5	stimuli/Faces/TMWmale20-4neutral.bmp		1.0678	CR
61.3943	2.5	stimuli/Faces/TMBfemale33-2neutral.bmp	NaN	NaN	NoResp
64.9969	2.5	stimuli/Faces/TMBmale24neutral.bmp		0.9347	CR
68.7663	2.5	stimuli/Faces/JWmale69-2neutral.bmp		1.2293	CR
72.4846	2.5	stimuli/Faces/TMWfemale36neutral.bmp		1.1231	CR
76.0373	2.5	stimuli/Faces/TMWmale34-4neutral.bmp		1.2216	CR
79.2071	2.5	stimuli/Faces/TMWfemale40neutral.bmp		1.4191	Miss
82.3757	2.5	stimuli/Faces/TSFWmale77neutral.bmp		1.2511	Miss
86.3953	2.5	stimuli/Faces/EMImale23-2neutral.bmp		1.2055	CR
90.2812	2.5	stimuli/Faces/TSFBfemale74-2neutral.bmp		1.2516	CR
93.5169	2.5	stimuli/Faces/TMBfemale57neutral.bmp		1.3248	Hit
96.9370	2.5	stimuli/Faces/JWfemale68-2neutral.bmp		0.8344	Hit
100.2551	2.5	stimuli/Faces/JWmale38neutral.bmp		1.0115	Miss
103.7741	2.5	stimuli/Faces/EMWfemale20-2neutral.bmp		1.2816	CR
107.7773	2.5	stimuli/Faces/EMIfemale19neutral.bmp		0.9283	CR
111.2298	2.5	stimuli/Faces/TMBmale44neutral.bmp		1.0200	Hit
114.4980	2.5	stimuli/Faces/EMBfemale20neutral.bmp		0.9665	Hit
118.1182	2.5	stimuli/Faces/EMBmale55neutral.bmp		1.3646	CR
121.3372	2.5	stimuli/Faces/TSFBfemale63neutral.bmp		1.2264	Hit
125.0911	2.5	stimuli/Faces/TMWmale34-3neutral.bmp		1.2215	FA
128.3935	2.5	stimuli/Faces/JBmale68neutral.bmp		0.7702	Hit
131.9948	2.5	stimuli/Faces/JWfemale86-2neutral.bmp		1.2919	CR
135.2636	2.5	stimuli/Faces/TMBmale18neutral.bmp		1.6669	Miss
139.2333	2.5	stimuli/Faces/TMWmale37neutral.bmp		1.0682	CR
142.7023	2.5	stimuli/Faces/JWfemale42neutral.bmp		1.3004	Hit
146.1047	2.5	stimuli/Faces/TSFWmale70neutral.bmp		1.1959	Hit
149.4736	2.5	stimuli/Faces/JWfemale82-2neutral.bmp		1.0960	Miss
152.6953	2.5	stimuli/Faces/TSFWmale79neutral.bmp		1.3464	Miss
156.0452	2.5	stimuli/Faces/EMBfemale21-4neutral.bmp		1.4043	Hit
159.5481	2.5	stimuli/Faces/EMImale23-4neutral.bmp		2.1875	Hit
163.0169	2.5	stimuli/Faces/EMImale23-6neutral.bmp		1.7217	Hit
166.5020	2.5	stimuli/Faces/EMBfemale49neutral.bmp		1.1877	Hit
170.4223	2.5	stimuli/Faces/TSFWmale75-3neutral.bmp		1.2282	CR
174.1588	2.5	stimuli/Faces/TSFBmale50neutral.bmp		0.9247	CR
178.1445	2.5	stimuli/Faces/TSFBfemale50neutral.bmp		1.4121	CR
181.1973	2.5	stimuli/Faces/TSFWfemale52-2neutral.bmp		0.7773	Hit
185.1493	2.5	stimuli/Faces/EMWfemale21-5neutral.bmp		1.4933	CR
189.0528	2.5	stimuli/Faces/TMWfemale43neutral.bmp		0.8586	CR
192.8562	2.5	stimuli/Faces/TSFWmale69neutral.bmp		0.9415	CR
196.7243	2.5	stimuli/Faces/JWfemale70-2neutral.bmp		1.3123	CR
199.8268	2.5	stimuli/Faces/JWfemale65-2neutral.bmp		1.0140	Hit
203.5130	2.5	stimuli/Faces/TSFBfemale70-2neutral.bmp		1.1705	CR
207.3151	2.5	stimuli/Faces/TSFBfemale65-2neutral.bmp		1.4486	FA
210.4177	2.5	stimuli/Faces/TSFHmale65neutral.bmp		0.9220	Hit
213.9862	2.5	stimuli/Faces/EMWmale33neutral.bmp		0.8985	CR
217.6557	2.5	stimuli/Faces/EMWmale21-3neutral.bmp		0.9078	CR
221.4759	2.5	stimuli/Faces/JWfemale69-2neutral.bmp		1.0457	CR
224.5950	2.5	stimuli/Faces/TMWmale32neutral.bmp		1.3438	Hit
228.4992	2.5	stimuli/Faces/JWfemale80-4neutral.bmp		1.2904	CR
231.6995	2.5	stimuli/Faces/JWmale64neutral.bmp		1.4153	Miss
234.8521	2.5	stimuli/Faces/JWfemale72-2neutral.bmp		1.2652	Hit
237.9038	2.5	stimuli/Faces/EMBfemale21-3neutral.bmp		0.8593	Hit
241.0239	2.5	stimuli/Faces/TMWmale25-2neutral.bmp		1.1647	Hit
244.3254	2.5	stimuli/Faces/JWfemale48neutral.bmp		1.3352	Miss
247.9610	2.5	stimuli/Faces/TMWmale79neutral.bmp		1.3716	CR
251.5818	2.5	stimuli/Faces/JWfemale66neutral.bmp		1.7259	CR
255.3011	2.5	stimuli/Faces/EMBfemale33neutral.bmp		1.2674	FA
258.8857	2.5	stimuli/Faces/TSFHfemale64neutral.bmp		1.0728	CR
262.5883	2.5	stimuli/Faces/JWfemale65-4neutral.bmp		1.3203	CR
266.5243	2.5	stimuli/Faces/TMBmale21neutral.bmp		1.0653	CR
270.4933	2.5	stimuli/Faces/EMBfemale25neutral.bmp		0.9554	CR
273.8799	2.5	stimuli/Faces/EMWfemale22-3neutral.bmp		0.8597	Hit
277.0153	2.5	stimuli/Faces/TSFWmale63neutral.bmp		1.2724	Hit
280.1847	2.5	stimuli/Faces/JWfemale78neutral.bmp		2.1678	Hit
283.3360	2.5	stimuli/Faces/JWfemale78-3neutral.bmp		1.0426	Hit
287.0062	2.5	stimuli/Faces/EMImale21-2neutral.bmp		1.0114	CR
290.0420	2.5	stimuli/Faces/EMWfemale18-2neutral.bmp		1.2425	Hit
293.5109	2.5	stimuli/Faces/EMBmale26neutral.bmp		0.9597	Hit
296.5960	2.5	stimuli/Faces/TSFBfemale54neutral.bmp		1.2496	Hit
300.5821	2.5	stimuli/Faces/TSFWmale74neutral.bmp		1.3814	CR
304.0686	2.5	stimuli/Faces/TSFWmale71-4neutral.bmp		0.9121	Hit
307.5059	2.5	stimuli/Faces/JWmale73neutral.bmp		1.0325	Hit
310.8561	2.5	stimuli/Faces/JWfemale71-2neutral.bmp		1.5384	Hit
314.6088	2.5	stimuli/Faces/TSFWmale54neutral.bmp		1.3519	CR
317.9953	2.5	stimuli/Faces/JWfemale76-4neutral.bmp		1.0643	Hit
321.3492	2.5	stimuli/Faces/EMWmale40neutral.bmp		0.9933	Hit
325.2002	2.5	stimuli/Faces/TMWmale22-3neutral.bmp		1.1635	CR
328.9025	2.5	stimuli/Faces/TSFWmale37neutral.bmp		0.9651	CR
332.8234	2.5	stimuli/Faces/EMHmale22neutral.bmp		1.3151	CR
336.4743	2.5	stimuli/Faces/TSFBfemale65neutral.bmp		1.6323	FA
339.5438	2.5	stimuli/Faces/TMBmale21-3neutral.bmp		1.5977	Miss
343.3816	2.5	stimuli/Faces/JWfemale44neutral.bmp		1.2479	CR
346.4491	2.5	stimuli/Faces/JWmale89neutral.bmp		1.0775	Miss
349.4674	2.5	stimuli/Faces/JWfemale74neutral.bmp		1.4070	Miss
