onset	duration	face	response	response_time	trial_type
1.2676	2.5	stimuli/Faces/TSFWmale75-3neutral.bmp		1.9887	FA
4.3868	2.5	stimuli/Faces/EMBmale55neutral.bmp		0.8335	Hit
8.3227	2.5	stimuli/Faces/EMBfemale21-4neutral.bmp		0.8875	FA
11.3766	2.5	stimuli/Faces/TMWmale79neutral.bmp		0.9156	Miss
14.6108	2.5	stimuli/Faces/JWmale89neutral.bmp		0.8593	Hit
18.2647	2.5	stimuli/Faces/TSFBfemale63neutral.bmp		0.9324	CR
22.1329	2.5	stimuli/Faces/TMBfemale57neutral.bmp		1.0551	CR
25.9871	2.5	stimuli/Faces/JWmale64neutral.bmp		1.6510	CR
29.5881	2.5	stimuli/Faces/TMHmale18neutral.bmp		1.0084	CR
33.2089	2.5	stimuli/Faces/TSFBfemale67neutral.bmp		0.9323	FA
37.1279	2.5	stimuli/Faces/JWmale65neutral.bmp		0.9492	CR
40.8134	2.5	stimuli/Faces/TMBmale28neutral.bmp		1.3276	CR
44.3652	2.5	stimuli/Faces/EMImale24-2neutral.bmp		1.2970	CR
47.4688	2.5	stimuli/Faces/TMWfemale43neutral.bmp		1.0642	Hit
50.5863	2.5	stimuli/Faces/EMWfemale24-2neutral.bmp		0.9527	Miss
53.9053	2.5	stimuli/Faces/TMWmale43neutral.bmp		0.9258	Hit
57.3250	2.5	stimuli/Faces/EMWfemale25neutral.bmp		1.3920	Hit
61.1439	2.5	stimuli/Faces/JWfemale48neutral.bmp		1.1630	CR
64.2960	2.5	stimuli/Faces/TMWfemale40neutral.bmp		1.4132	Miss
67.5491	2.5	stimuli/Faces/JWfemale77-4neutral.bmp		1.2129	Miss
70.7170	2.5	stimuli/Faces/EMBfemale21-3neutral.bmp		0.8701	Hit
73.7694	2.5	stimuli/Faces/JWfemale65-2neutral.bmp		0.9885	Miss
77.3893	2.5	stimuli/Faces/JWfemale83neutral.bmp		1.0518	CR
80.5409	2.5	stimuli/Faces/EMImale25neutral.bmp		0.8450	Hit
83.6431	2.5	stimuli/Faces/JWfemale78-6neutral.bmp		1.4380	Miss
87.5138	2.5	stimuli/Faces/EMBfemale21neutral.bmp		0.6890	FA
91.4323	2.5	stimuli/Faces/TMWfemale37neutral.bmp		0.7206	CR
95.4349	2.5	stimuli/Faces/TMWfemale36neutral.bmp		0.9021	CR
99.4053	2.5	stimuli/Faces/TMBfemale51neutral.bmp		0.8356	CR
103.2571	2.5	stimuli/Faces/WBmale31neutral.bmp		0.9810	CR
106.9764	2.5	stimuli/Faces/EMImale23-2neutral.bmp		1.4776	CR
110.6961	2.5	stimuli/Faces/JWfemale74-2neutral.bmp		1.2400	CR
114.0819	2.5	stimuli/Faces/JWfemale71-5neutral.bmp		0.7907	Hit
117.2180	2.5	stimuli/Faces/JWfemale37neutral.bmp		1.4748	Miss
120.5863	2.5	stimuli/Faces/JWfemale68-2neutral.bmp		1.1148	Hit
123.9053	2.5	stimuli/Faces/EMBfemale20-2neutral.bmp		1.4385	Miss
127.4247	2.5	stimuli/Faces/EMImale21-2neutral.bmp		1.7863	CR
131.1285	2.5	stimuli/Faces/EMImale23-6neutral.bmp		1.1722	CR
135.1312	2.5	stimuli/Faces/TMBfemale40neutral.bmp		1.5206	FA
138.8820	2.5	stimuli/Faces/EMWmale21-3neutral.bmp		2.0400	CR
142.6854	2.5	stimuli/Faces/TMWmale71neutral.bmp		1.1897	CR
146.3558	2.5	stimuli/Faces/TSFBfemale65-2neutral.bmp		1.2971	FA
149.5749	2.5	stimuli/Faces/TMBmale44neutral.bmp		1.5725	Miss
152.6428	2.5	stimuli/Faces/TSFBfemale65neutral.bmp		0.8881	Hit
155.8447	2.5	stimuli/Faces/TMWmale34neutral.bmp		1.1200	Hit
159.4809	2.5	stimuli/Faces/JWfemale80-4neutral.bmp		1.0507	CR
162.9665	2.5	stimuli/Faces/JWfemale71-2neutral.bmp		0.7644	Hit
166.3197	2.5	stimuli/Faces/JWfemale78-3neutral.bmp		0.9052	Hit
169.3387	2.5	stimuli/Faces/JWmale38neutral.bmp		1.0070	Miss
172.5901	2.5	stimuli/Faces/TMWmale37-2neutral.bmp		1.2886	Hit
176.4098	2.5	stimuli/Faces/JWfemale66neutral.bmp		0.8755	CR
179.6121	2.5	stimuli/Faces/TMWmale34-4neutral.bmp		1.1648	Hit
183.4157	2.5	stimuli/Faces/TSFWmale79-3neutral.bmp		0.9100	CR
187.4342	2.5	stimuli/Faces/JWmale79neutral.bmp		1.2749	CR
190.5196	2.5	stimuli/Faces/EMBfemale20neutral.bmp		0.7614	Hit
194.1222	2.5	stimuli/Faces/TMBmale21-3neutral.bmp		1.1945	CR
197.2908	2.5	stimuli/Faces/JWfemale79neutral.bmp		1.7021	Hit
201.2276	2.5	stimuli/Faces/EMIfemale19neutral.bmp		0.8261	CR
205.2150	2.5	stimuli/Faces/EMWfemale18-2neutral.bmp		1.2745	CR
208.5490	2.5	stimuli/Faces/JWfemale76-4neutral.bmp		0.9289	Hit
212.4362	2.5	stimuli/Faces/JWmale83-2neutral.bmp		0.8487	CR
215.7211	2.5	stimuli/Faces/TMWmale33neutral.bmp		1.4576	Miss
219.1570	2.5	stimuli/Faces/TSFWmale37neutral.bmp		1.3546	Miss
222.7095	2.5	stimuli/Faces/Wmale_55-2.bmp		1.3972	CR
225.9952	2.5	stimuli/Faces/TSFWmale77neutral.bmp		0.7324	Hit
229.4648	2.5	stimuli/Faces/TSFWmale66-2neutral.bmp		1.0251	Miss
233.1182	2.5	stimuli/Faces/TMBmale41neutral.bmp		1.2515	FA
236.6536	2.5	stimuli/Faces/JWmale88neutral.bmp		1.5931	CR
240.1398	2.5	stimuli/Faces/TSFAmale68neutral.bmp		1.1008	Miss
243.2088	2.5	stimuli/Faces/EMBfemale49neutral.bmp		1.1107	Miss
246.7768	2.5	stimuli/Faces/EMImale24-4neutral.bmp		1.1439	CR
250.4795	2.5	stimuli/Faces/JWmale67neutral.bmp		1.3381	CR
253.9155	2.5	stimuli/Faces/TMWmale41neutral.bmp		1.4265	Hit
257.2174	2.5	stimuli/Faces/EMWmale19neutral.bmp		1.6658	Miss
261.1215	2.5	stimuli/Faces/EMBfemale25neutral.bmp		1.2680	FA
264.6914	2.5	stimuli/Faces/TSFWmale61neutral.bmp		1.0063	CR
268.4585	2.5	stimuli/Faces/TSFWmale46neutral.bmp		1.1892	CR
271.7276	2.5	stimuli/Faces/TSFWmale69neutral.bmp		1.1687	Hit
275.6319	2.5	stimuli/Faces/EMWmale40neutral.bmp		1.0656	CR
279.3015	2.5	stimuli/Faces/JWfemale72-2neutral.bmp		0.8871	CR
282.7691	2.5	stimuli/Faces/TSFWmale68-2neutral.bmp		0.8766	Hit
286.1384	2.5	stimuli/Faces/TMBfemale30neutral.bmp		1.1782	Hit
289.3573	2.5	stimuli/Faces/EMWfemale21-3neutral.bmp		1.3162	Miss
292.5427	2.5	stimuli/Faces/EMIfemale25-2neutral.bmp		0.8188	Hit
296.1284	2.5	stimuli/Faces/JWfemale77-2neutral.bmp		1.0940	CR
299.5315	2.5	stimuli/Faces/JWfemale78neutral.bmp		1.1529	Miss
303.0669	2.5	stimuli/Faces/TSFBfemale65-3neutral.bmp		0.9125	Hit
306.4034	2.5	stimuli/Faces/JWmale76neutral.bmp		1.0331	Miss
310.3562	2.5	stimuli/Faces/JWfemale64-3neutral.bmp		1.0523	CR
313.6587	2.5	stimuli/Faces/TMWmale34-3neutral.bmp		1.1657	Miss
317.0604	2.5	stimuli/Faces/EMHmale22neutral.bmp		1.0391	Miss
320.8464	2.5	stimuli/Faces/TSFWmale42neutral.bmp		1.0388	CR
324.5824	2.5	stimuli/Faces/EMBfemale26neutral.bmp		0.8993	CR
328.0014	2.5	stimuli/Faces/TMWmale30neutral.bmp		0.8779	Miss
331.0368	2.5	stimuli/Faces/TSFWmale71neutral.bmp		1.1056	Hit
334.8891	2.5	stimuli/Faces/TSFHmale65neutral.bmp		0.8894	CR
338.3928	2.5	stimuli/Faces/TSFBmale50neutral.bmp		0.9457	Hit
342.3618	2.5	stimuli/Faces/JWmale66neutral.bmp		1.1615	CR
345.8153	2.5	stimuli/Faces/TSFHfemale64neutral.bmp		0.9260	Hit
349.5336	2.5	stimuli/Faces/EMIfemale26neutral.bmp		1.0197	CR
