onset	duration	face	response	response_time	trial_type
1.4679	2.5	stimuli/Faces/TSFWmale57neutral.bmp		2.0472	FA
4.5200	2.5	stimuli/Faces/EMBfemale33neutral.bmp		1.1981	Hit
8.0560	2.5	stimuli/Faces/TSFWmale37neutral.bmp		1.9254	CR
12.0088	2.5	stimuli/Faces/JWmale81-2neutral.bmp		1.4803	FA
15.8787	2.5	stimuli/Faces/JWmale89neutral.bmp		1.6902	FA
19.1647	2.5	stimuli/Faces/TSFBfemale54neutral.bmp		1.3655	Hit
22.5335	2.5	stimuli/Faces/EMBfemale22-2neutral.bmp		1.3436	Hit
25.6019	2.5	stimuli/Faces/EMBfemale22-4neutral.bmp		1.2561	Hit
29.2378	2.5	stimuli/Faces/EMBfemale22-3neutral.bmp		1.4994	CR
32.7405	2.5	stimuli/Faces/TMWfemale43neutral.bmp		1.7215	Hit
36.2930	2.5	stimuli/Faces/TMBfemale41neutral.bmp		2.0339	CR
39.7454	2.5	stimuli/Faces/TMBfemale30neutral.bmp		2.0437	Hit
43.4480	2.5	stimuli/Faces/EMWmale19-3neutral.bmp		1.6084	CR
46.6335	2.5	stimuli/Faces/TSFBfemale50neutral.bmp		1.5675	Miss
49.8526	2.5	stimuli/Faces/EMImale24-2neutral.bmp		1.2155	Hit
52.8879	2.5	stimuli/Faces/TSFWmale63neutral.bmp		1.4462	Hit
56.4908	2.5	stimuli/Faces/JWfemale77-2neutral.bmp		1.3952	CR
60.4436	2.5	stimuli/Faces/TMWmale37-2neutral.bmp		1.8976	CR
63.9295	2.5	stimuli/Faces/TMBfemale33-2neutral.bmp		2.1937	Miss
67.9160	2.5	stimuli/Faces/TMWmale30neutral.bmp		1.8040	CR
71.7848	2.5	stimuli/Faces/EMBmale20neutral.bmp		2.2751	CR
74.9373	2.5	stimuli/Faces/TMWmale20-4neutral.bmp		1.8159	Hit
78.1067	2.5	stimuli/Faces/EMWfemale30neutral.bmp		1.5364	Hit
82.0423	2.5	stimuli/Faces/JWfemale48neutral.bmp		1.7235	CR
85.7955	2.5	stimuli/Faces/JWfemale80-4neutral.bmp		1.7236	CR
89.1141	2.5	stimuli/Faces/TSFBfemale74-2neutral.bmp		1.7310	Hit
92.1662	2.5	stimuli/Faces/JBmale68neutral.bmp		1.7897	Hit
95.4186	2.5	stimuli/Faces/JWfemale60neutral.bmp		1.9646	Miss
98.4376	2.5	stimuli/Faces/TSFBfemale62neutral.bmp		1.8944	Hit
101.7898	2.5	stimuli/Faces/EMWfemale18-2neutral.bmp		1.3433	Hit
105.1927	2.5	stimuli/Faces/TMWmale45neutral.bmp		2.4603	Hit
109.2118	2.5	stimuli/Faces/EMWfemale24-2neutral.bmp		1.5022	CR
113.0314	2.5	stimuli/Faces/Wmale_55.bmp		1.5465	CR
116.5338	2.5	stimuli/Faces/TSFWmale66-2neutral.bmp		2.4081	Hit
119.8695	2.5	stimuli/Faces/TSFBmale77neutral.bmp		2.0334	Hit
123.7721	2.5	stimuli/Faces/EMWfemale21-5neutral.bmp		1.2837	CR
127.0246	2.5	stimuli/Faces/TMWmale71neutral.bmp		2.0033	Hit
131.0440	2.5	stimuli/Faces/TSFWmale79-3neutral.bmp		1.5327	CR
134.7969	2.5	stimuli/Faces/JWfemale79neutral.bmp		2.0230	CR
138.2329	2.5	stimuli/Faces/EMIfemale25-2neutral.bmp		1.5329	Hit
141.5525	2.5	stimuli/Faces/JWmale86neutral.bmp		1.9164	Hit
144.6540	2.5	stimuli/Faces/JWfemale70-2neutral.bmp		1.7419	Miss
147.7561	2.5	stimuli/Faces/EMIfemale26neutral.bmp		1.5737	Hit
151.1087	2.5	stimuli/Faces/EMWmale33neutral.bmp		1.3343	Miss
154.9947	2.5	stimuli/Faces/TMBmale21neutral.bmp		2.1052	CR
158.1637	2.5	stimuli/Faces/TSFWmale79neutral.bmp		2.0033	Hit
161.8330	2.5	stimuli/Faces/EMWmale20neutral.bmp		1.6810	CR
165.5356	2.5	stimuli/Faces/JWmale65neutral.bmp		2.0587	CR
168.9381	2.5	stimuli/Faces/JWmale66neutral.bmp		1.6488	Hit
172.7579	2.5	stimuli/Faces/TSFWmale88neutral.bmp		2.0020	CR
176.1766	2.5	stimuli/Faces/JWfemale67-4neutral.bmp		1.7694	Hit
179.2955	2.5	stimuli/Faces/JWfemale66neutral.bmp		1.8684	Hit
182.8982	2.5	stimuli/Faces/JWfemale73-2neutral.bmp		1.2038	CR
185.9671	2.5	stimuli/Faces/TSFWmale68-2neutral.bmp		2.4049	Miss
189.2026	2.5	stimuli/Faces/JWfemale37neutral.bmp		1.3183	Hit
193.0554	2.5	stimuli/Faces/TMBfemale37neutral.bmp		1.4266	CR
196.5079	2.5	stimuli/Faces/TMWmale34-3neutral.bmp		1.5321	Hit
200.2445	2.5	stimuli/Faces/TMWfemale37neutral.bmp		2.0105	CR
203.4628	2.5	stimuli/Faces/EMBfemale20neutral.bmp		1.8311	Hit
206.6650	2.5	stimuli/Faces/EMIfemale19neutral.bmp		1.1790	Hit
209.9685	2.5	stimuli/Faces/TMWmale34-4neutral.bmp		1.6743	Miss
213.9704	2.5	stimuli/Faces/TMWmale32neutral.bmp		1.3954	CR
217.5897	2.5	stimuli/Faces/TMWfemale49-2neutral.bmp		1.6154	CR
221.4256	2.5	stimuli/Faces/EMBfemale25neutral.bmp	NaN	NaN	NoResp
224.7283	2.5	stimuli/Faces/TMBfemale33neutral.bmp		1.9597	Hit
227.8806	2.5	stimuli/Faces/TMBfemale57neutral.bmp		2.1452	Miss
231.0160	2.5	stimuli/Faces/TMBmale49neutral.bmp		2.1780	Hit
234.6686	2.5	stimuli/Faces/TSFBfemale65-2neutral.bmp		1.8613	CR
238.3880	2.5	stimuli/Faces/TSFWfemale52-2neutral.bmp		1.4980	CR
241.6569	2.5	stimuli/Faces/JWmale76neutral.bmp		1.3930	Hit
245.2266	2.5	stimuli/Faces/Wmale_50.bmp		1.4523	CR
248.5946	2.5	stimuli/Faces/JWfemale83neutral.bmp		1.7342	Hit
252.3318	2.5	stimuli/Faces/EMBmale26neutral.bmp		1.2850	CR
256.1012	2.5	stimuli/Faces/JWfemale50neutral.bmp		1.8968	FA
259.3695	2.5	stimuli/Faces/TSFWmale71neutral.bmp		2.1024	Hit
262.8390	2.5	stimuli/Faces/TMBmale21-3neutral.bmp		1.9548	Miss
266.3913	2.5	stimuli/Faces/TMWmale33neutral.bmp		1.7296	CR
270.0440	2.5	stimuli/Faces/JWfemale74-2neutral.bmp		2.4398	CR
273.5131	2.5	stimuli/Faces/TSFWmale54neutral.bmp		1.6858	Hit
277.1657	2.5	stimuli/Faces/JWmale73neutral.bmp		2.3363	CR
280.7351	2.5	stimuli/Faces/TMWmale43neutral.bmp		1.9330	CR
283.8205	2.5	stimuli/Faces/EMWmale19neutral.bmp		2.1402	Hit
287.6733	2.5	stimuli/Faces/JWfemale79-4neutral.bmp		1.7827	CR
291.5926	2.5	stimuli/Faces/TMBmale39neutral.bmp		2.3203	CR
295.1121	2.5	stimuli/Faces/TMBmale18neutral.bmp		2.1447	CR
299.0149	2.5	stimuli/Faces/TSFBfemale63neutral.bmp		1.9540	CR
303.0177	2.5	stimuli/Faces/JWfemale76-3neutral.bmp		1.8022	CR
306.6029	2.5	stimuli/Faces/JWfemale82-2neutral.bmp		1.7918	CR
310.3900	2.5	stimuli/Faces/EMHmale22neutral.bmp		1.3226	CR
313.4918	2.5	stimuli/Faces/JWfemale65-6neutral.bmp		1.6491	Miss
317.1778	2.5	stimuli/Faces/TSFWmale67-2neutral.bmp		2.1589	CR
321.0972	2.5	stimuli/Faces/TMBmale30neutral.bmp		1.8127	CR
324.8831	2.5	stimuli/Faces/JWfemale78neutral.bmp		1.6437	CR
328.0856	2.5	stimuli/Faces/TMBfemale40neutral.bmp	NaN	NaN	NoResp
331.8555	2.5	stimuli/Faces/TMBmale41neutral.bmp		1.9902	CR
335.5744	2.5	stimuli/Faces/TSFWmale75-3neutral.bmp		2.0605	FA
339.1936	2.5	stimuli/Faces/JWmale38neutral.bmp		1.4443	CR
342.5787	2.5	stimuli/Faces/TSFWmale46neutral.bmp		2.1272	Hit
346.0989	2.5	stimuli/Faces/JWmale70neutral.bmp		2.3640	Miss
349.5175	2.5	stimuli/Faces/JWfemale64-3neutral.bmp		1.2814	Hit
