onset	duration	face	response	response_time	trial_type
0.8676	2.5	stimuli/Faces/TMBfemale33-2neutral.bmp		1.1161	Hit
4.8559	2.5	stimuli/Faces/JWmale79neutral.bmp		1.1581	FA
8.2229	2.5	stimuli/Faces/TMWfemale43neutral.bmp		1.2411	Hit
11.7254	2.5	stimuli/Faces/TSFWmale37neutral.bmp		0.7684	Hit
15.2120	2.5	stimuli/Faces/JWfemale74-2neutral.bmp		0.6907	Hit
18.7637	2.5	stimuli/Faces/TMBfemale37neutral.bmp		1.3331	FA
22.3663	2.5	stimuli/Faces/EMImale24-4neutral.bmp		0.6496	FA
25.4685	2.5	stimuli/Faces/TSFAmale68neutral.bmp		0.7512	Hit
28.5208	2.5	stimuli/Faces/TMWmale45neutral.bmp		1.0392	Hit
31.6729	2.5	stimuli/Faces/TSFBfemale63neutral.bmp		0.7099	Hit
35.0443	2.5	stimuli/Faces/TMWmale43neutral.bmp		1.2315	Miss
38.3942	2.5	stimuli/Faces/JWfemale64-3neutral.bmp		0.6515	Hit
41.6164	2.5	stimuli/Faces/TMWmale34-2neutral.bmp		0.9794	Miss
44.6656	2.5	stimuli/Faces/JWmale70neutral.bmp		1.0223	Hit
48.1845	2.5	stimuli/Faces/TMBmale44neutral.bmp		0.6981	FA
52.0543	2.5	stimuli/Faces/EMBfemale22-3neutral.bmp		1.8969	FA
55.3074	2.5	stimuli/Faces/TMWmale34-4neutral.bmp		1.1924	Hit
58.5762	2.5	stimuli/Faces/JWmale83-2neutral.bmp		1.1628	Hit
61.7125	2.5	stimuli/Faces/TSFBfemale63-2neutral.bmp		0.8443	Hit
65.6805	2.5	stimuli/Faces/WBfemale47neutral.bmp		0.7872	FA
68.8994	2.5	stimuli/Faces/EMImale25-2neutral.bmp		1.3144	Hit
72.8023	2.5	stimuli/Faces/JWmale88neutral.bmp		1.1316	CR
76.2057	2.5	stimuli/Faces/EMBfemale33neutral.bmp		0.7674	Hit
79.2903	2.5	stimuli/Faces/EMBfemale21neutral.bmp		0.9193	Hit
82.5769	2.5	stimuli/Faces/TMBmale21-3neutral.bmp		0.7609	Hit
86.1954	2.5	stimuli/Faces/JWfemale70-2neutral.bmp		1.6974	CR
90.1649	2.5	stimuli/Faces/TSFWmale71-4neutral.bmp		1.0031	CR
93.6856	2.5	stimuli/Faces/Wmale_50.bmp		1.5103	Hit
97.6370	2.5	stimuli/Faces/TMWmale71neutral.bmp		1.1008	FA
101.5397	2.5	stimuli/Faces/TMWmale37-2neutral.bmp		1.1031	CR
105.1260	2.5	stimuli/Faces/JWfemale65-6neutral.bmp		1.0198	CR
108.8615	2.5	stimuli/Faces/JWfemale71-2neutral.bmp		0.8114	FA
112.0139	2.5	stimuli/Faces/TSFWmale75-3neutral.bmp		1.2809	Miss
115.7174	2.5	stimuli/Faces/TMWfemale34-2neutral.bmp		1.1722	FA
119.0709	2.5	stimuli/Faces/TMBfemale57neutral.bmp		1.2187	Miss
122.2715	2.5	stimuli/Faces/TSFWmale61neutral.bmp		1.4171	Miss
125.5918	2.5	stimuli/Faces/EMWmale20neutral.bmp		0.9440	Miss
129.1432	2.5	stimuli/Faces/JWmale83neutral.bmp		0.8665	CR
132.9124	2.5	stimuli/Faces/JWfemale73-2neutral.bmp		0.5744	FA
135.9979	2.5	stimuli/Faces/EMBfemale22-2neutral.bmp		0.8018	Hit
139.2169	2.5	stimuli/Faces/EMBfemale25neutral.bmp		1.0628	Hit
142.6357	2.5	stimuli/Faces/TMWmale41neutral.bmp		0.9584	Miss
145.9728	2.5	stimuli/Faces/JWfemale83neutral.bmp		0.5700	Hit
149.4412	2.5	stimuli/Faces/EMBmale26neutral.bmp		0.7004	Hit
152.8765	2.5	stimuli/Faces/TMBmale18neutral.bmp		0.7754	Hit
156.8629	2.5	stimuli/Faces/JWfemale50neutral.bmp		1.1178	CR
160.0986	2.5	stimuli/Faces/EMBfemale20neutral.bmp		0.8522	Hit
163.8009	2.5	stimuli/Faces/TMWmale22-3neutral.bmp		1.1337	CR
167.7373	2.5	stimuli/Faces/EMWfemale34neutral.bmp		1.6675	FA
171.1909	2.5	stimuli/Faces/JWfemale78-3neutral.bmp		1.2339	Hit
174.8252	2.5	stimuli/Faces/TMWfemale31neutral.bmp		0.9477	CR
178.5625	2.5	stimuli/Faces/EMBfemale21-2neutral.bmp		0.8221	FA
182.1144	2.5	stimuli/Faces/JBmale68neutral.bmp		2.4605	FA
185.4166	2.5	stimuli/Faces/EMBfemale29neutral.bmp		0.8761	Hit
189.3028	2.5	stimuli/Faces/TMBmale30neutral.bmp		0.8619	CR
192.4895	2.5	stimuli/Faces/EMWfemale22-3neutral.bmp		0.9248	Hit
195.5240	2.5	stimuli/Faces/TSFWfemale52-2neutral.bmp		0.8617	Miss
199.2433	2.5	stimuli/Faces/TSFBfemale65-3neutral.bmp		1.7377	CR
202.9158	2.5	stimuli/Faces/JWfemale70-4neutral.bmp		0.9589	FA
206.7820	2.5	stimuli/Faces/TSFBfemale65neutral.bmp		1.4637	CR
209.8509	2.5	stimuli/Faces/JWmale81-2neutral.bmp		1.4521	Hit
213.5702	2.5	stimuli/Faces/Wmale_55-3.bmp		1.0024	CR
217.3397	2.5	stimuli/Faces/Wmale_65.bmp		1.4550	CR
220.9093	2.5	stimuli/Faces/EMWmale40neutral.bmp		1.2393	FA
224.7123	2.5	stimuli/Faces/JWfemale74neutral.bmp		2.2915	FA
228.5310	2.5	stimuli/Faces/JWfemale48neutral.bmp	NaN	NaN	NoResp
231.9502	2.5	stimuli/Faces/EMWmale33neutral.bmp		0.8972	Hit
235.5526	2.5	stimuli/Faces/EMIfemale25neutral.bmp		0.5881	FA
238.7070	2.5	stimuli/Faces/TSFBfemale78-2neutral.bmp		0.6735	Hit
242.3570	2.5	stimuli/Faces/EMWmale21-3neutral.bmp		0.9276	CR
246.3264	2.5	stimuli/Faces/JWfemale82-2neutral.bmp		0.8871	FA
249.9797	2.5	stimuli/Faces/TMWfemale36neutral.bmp		1.2230	CR
253.8158	2.5	stimuli/Faces/EMWmale52neutral.bmp		1.4350	FA
257.7186	2.5	stimuli/Faces/EMBfemale21-4neutral.bmp		1.2852	CR
261.2229	2.5	stimuli/Faces/TSFWmale57neutral.bmp		1.0071	Miss
264.6904	2.5	stimuli/Faces/TMBmale49neutral.bmp		1.6715	Hit
268.4595	2.5	stimuli/Faces/JWmale65neutral.bmp		0.7042	CR
271.5780	2.5	stimuli/Faces/JWmale67neutral.bmp		0.9557	Miss
274.5968	2.5	stimuli/Faces/JWfemale68-2neutral.bmp		0.9406	Hit
278.5019	2.5	stimuli/Faces/TSFWmale87neutral.bmp		0.8014	CR
281.9030	2.5	stimuli/Faces/TSFBfemale50neutral.bmp		0.7944	Hit
285.2210	2.5	stimuli/Faces/TMBmale28neutral.bmp		1.7495	Miss
289.0242	2.5	stimuli/Faces/JWmale86neutral.bmp		1.0503	CR
292.2263	2.5	stimuli/Faces/JWfemale78-6neutral.bmp		1.6341	Miss
296.0125	2.5	stimuli/Faces/TMWmale25-2neutral.bmp		1.7301	CR
299.8656	2.5	stimuli/Faces/TSFWfemale34neutral.bmp		1.5381	CR
303.5355	2.5	stimuli/Faces/TMWfemale49-2neutral.bmp		0.8341	CR
307.1207	2.5	stimuli/Faces/TMBmale39neutral.bmp		0.9860	CR
310.1897	2.5	stimuli/Faces/TSFBfemale62neutral.bmp		0.6648	Hit
313.9428	2.5	stimuli/Faces/TMHmale18neutral.bmp		0.6396	CR
317.0805	2.5	stimuli/Faces/JWfemale65-2neutral.bmp		1.2680	Hit
320.5137	2.5	stimuli/Faces/TSFWmale66-2neutral.bmp		1.3139	Miss
324.1663	2.5	stimuli/Faces/Wmale_55.bmp		1.0233	CR
327.4687	2.5	stimuli/Faces/EMBfemale26neutral.bmp		0.5581	Hit
331.4882	2.5	stimuli/Faces/EMWfemale21-3neutral.bmp		0.9045	FA
334.6574	2.5	stimuli/Faces/JWmale80neutral.bmp		1.1002	Miss
338.6440	2.5	stimuli/Faces/EMWmale19-3neutral.bmp		1.1646	CR
342.4959	2.5	stimuli/Faces/JWfemale77neutral.bmp		1.4285	CR
345.7657	2.5	stimuli/Faces/JWmale66neutral.bmp		1.8568	Hit
349.3845	2.5	stimuli/Faces/EMIfemale19neutral.bmp		1.4162	CR
