onset	duration	face	response	response_time	trial_type
1.0015	2.5	stimuli/Faces/TMWfemale40neutral.bmp		NaN	NoResp
4.9199	2.5	stimuli/Faces/EMIfemale25neutral.bmp		0.9650	FA
8.4397	2.5	stimuli/Faces/TMWmale19neutral.bmp		1.0459	FA
11.6918	2.5	stimuli/Faces/TSFWmale70neutral.bmp		1.6258	FA
15.3120	2.5	stimuli/Faces/JWfemale81-3neutral.bmp		1.0132	Hit
18.5142	2.5	stimuli/Faces/TSFWmale74neutral.bmp		1.4711	CR
22.0169	2.5	stimuli/Faces/JWmale70neutral.bmp		1.3794	Hit
25.6856	2.5	stimuli/Faces/JWfemale82-2neutral.bmp		1.3787	Hit
28.9711	2.5	stimuli/Faces/JWfemale65-4neutral.bmp		1.0224	FA
32.1066	2.5	stimuli/Faces/Wmale_55-2.bmp		1.0245	FA
35.3925	2.5	stimuli/Faces/JWfemale79-4neutral.bmp		0.9702	Hit
39.2638	2.5	stimuli/Faces/TMWmale37neutral.bmp		1.1022	Hit
42.3161	2.5	stimuli/Faces/TSFBfemale74-2neutral.bmp		1.2085	Hit
45.7165	2.5	stimuli/Faces/JWfemale86-2neutral.bmp		1.2419	Miss
49.0189	2.5	stimuli/Faces/TMWfemale36neutral.bmp		0.9844	Hit
52.3879	2.5	stimuli/Faces/TSFBfemale62neutral.bmp		1.4148	Miss
55.9563	2.5	stimuli/Faces/TSFWmale79neutral.bmp		1.3666	FA
59.6761	2.5	stimuli/Faces/JWfemale48neutral.bmp		1.1186	CR
63.6452	2.5	stimuli/Faces/TMBfemale51neutral.bmp		1.4150	CR
67.0481	2.5	stimuli/Faces/EMImale21-2neutral.bmp		1.0464	Hit
70.4676	2.5	stimuli/Faces/TMBmale28neutral.bmp		2.1690	CR
73.6863	2.5	stimuli/Faces/TMWfemale31neutral.bmp		1.4747	CR
76.7895	2.5	stimuli/Faces/TSFWmale71neutral.bmp		1.3287	Hit
80.1418	2.5	stimuli/Faces/TMBmale30neutral.bmp		1.6193	CR
83.3934	2.5	stimuli/Faces/TMWmale33neutral.bmp	NaN	1.8923	Hit
87.1814	2.5	stimuli/Faces/EMBfemale22neutral.bmp		1.3130	CR
90.4491	2.5	stimuli/Faces/TSFWfemale34neutral.bmp		1.1352	FA
94.3012	2.5	stimuli/Faces/TSFWmale46neutral.bmp		1.2492	Hit
97.6199	2.5	stimuli/Faces/TSFWmale63neutral.bmp		1.5946	CR
100.7057	2.5	stimuli/Faces/JWfemale71-5neutral.bmp		1.9456	CR
103.9240	2.5	stimuli/Faces/TMBfemale33neutral.bmp		0.9943	Hit
107.8612	2.5	stimuli/Faces/JWmale79neutral.bmp		1.6940	CR
111.6636	2.5	stimuli/Faces/EMWfemale22neutral.bmp		1.3742	Hit
115.1334	2.5	stimuli/Faces/EMWmale21-3neutral.bmp		1.4756	CR
118.6203	2.5	stimuli/Faces/TMBmale21-3neutral.bmp		1.2848	Hit
122.2722	2.5	stimuli/Faces/EMWmale20neutral.bmp		1.1105	CR
125.3753	2.5	stimuli/Faces/Wmale_65.bmp		1.5959	Hit
128.8927	2.5	stimuli/Faces/JWmale69-2neutral.bmp		1.7788	Hit
132.0617	2.5	stimuli/Faces/TMBfemale57neutral.bmp		0.8719	CR
135.7645	2.5	stimuli/Faces/EMBmale20neutral.bmp		2.0778	FA
139.3171	2.5	stimuli/Faces/TMWmale22-3neutral.bmp		1.4950	Hit
142.4865	2.5	stimuli/Faces/EMWmale52neutral.bmp		1.4355	CR
146.1059	2.5	stimuli/Faces/TSFWmale77neutral.bmp		1.5026	Hit
149.9094	2.5	stimuli/Faces/JWfemale68-2neutral.bmp		2.1342	CR
152.9600	2.5	stimuli/Faces/TMHmale18neutral.bmp		1.6287	CR
156.8811	2.5	stimuli/Faces/EMBmale55neutral.bmp		1.9013	Miss
160.5322	2.5	stimuli/Faces/JWfemale50neutral.bmp		1.0749	CR
163.5849	2.5	stimuli/Faces/TMWmale34-4neutral.bmp		2.2915	CR
167.5889	2.5	stimuli/Faces/EMBfemale22-4neutral.bmp		1.9080	CR
171.2232	2.5	stimuli/Faces/TSFBfemale54neutral.bmp		1.5989	CR
174.3427	2.5	stimuli/Faces/EMBfemale26neutral.bmp		1.4117	Hit
178.2447	2.5	stimuli/Faces/TMWfemale49-2neutral.bmp		NaN	NoResp
181.5973	2.5	stimuli/Faces/TMWfemale37neutral.bmp		1.8691	Hit
184.6661	2.5	stimuli/Faces/JWmale86neutral.bmp		1.7208	CR
187.9850	2.5	stimuli/Faces/TMBmale18neutral.bmp		NaN	NoResp
191.7211	2.5	stimuli/Faces/TSFWmale79-3neutral.bmp		0.8309	Hit
195.4915	2.5	stimuli/Faces/TMBmale21neutral.bmp		1.4954	Hit
198.9112	2.5	stimuli/Faces/EMWfemale25neutral.bmp		1.3614	Hit
202.5788	2.5	stimuli/Faces/TMWmale43neutral.bmp		1.2986	Hit
205.5807	2.5	stimuli/Faces/JWfemale71-2neutral.bmp		2.0281	CR
208.9001	2.5	stimuli/Faces/JWfemale77-2neutral.bmp		1.9830	Hit
211.9372	2.5	stimuli/Faces/TSFWmale69neutral.bmp		1.0140	CR
215.2047	2.5	stimuli/Faces/JWmale81-2neutral.bmp		2.2331	CR
219.1578	2.5	stimuli/Faces/JWfemale72-2neutral.bmp		1.2597	CR
222.6108	2.5	stimuli/Faces/JWmale83-2neutral.bmp		1.6401	Miss
225.9956	2.5	stimuli/Faces/EMWmale32neutral.bmp		2.2579	Miss
229.8489	2.5	stimuli/Faces/TMBfemale30neutral.bmp		0.9385	Hit
233.4345	2.5	stimuli/Faces/TSFBfemale63-2neutral.bmp		1.2283	CR
236.9543	2.5	stimuli/Faces/EMWfemale22-3neutral.bmp		NaN	NoResp
240.7245	2.5	stimuli/Faces/JWmale76neutral.bmp		1.2456	Hit
244.5267	2.5	stimuli/Faces/TMWmale79neutral.bmp		2.4260	Hit
248.4118	2.5	stimuli/Faces/JWfemale74neutral.bmp		1.2850	Hit
252.0811	2.5	stimuli/Faces/TMBmale49neutral.bmp		1.4936	Miss
255.6339	2.5	stimuli/Faces/EMWmale19neutral.bmp		1.4112	FA
259.6536	2.5	stimuli/Faces/JWmale89neutral.bmp		1.3768	Miss
263.0226	2.5	stimuli/Faces/EMImale23-4neutral.bmp		1.3489	Hit
267.0269	2.5	stimuli/Faces/TMWmale34-3neutral.bmp		1.2170	CR
270.7613	2.5	stimuli/Faces/TMWmale71neutral.bmp		1.9241	Hit
274.1975	2.5	stimuli/Faces/TMWfemale34-2neutral.bmp		1.7396	CR
278.1666	2.5	stimuli/Faces/TMWfemale35neutral.bmp		1.9206	Hit
281.8192	2.5	stimuli/Faces/TSFHfemale64neutral.bmp		2.2813	FA
285.6723	2.5	stimuli/Faces/JWfemale65-2neutral.bmp		1.2547	CR
289.6414	2.5	stimuli/Faces/JWfemale70-4neutral.bmp		1.5765	Miss
293.3772	2.5	stimuli/Faces/TSFWmale66-2neutral.bmp		NaN	NoResp
296.8634	2.5	stimuli/Faces/EMWfemale20-2neutral.bmp		2.2495	CR
299.9821	2.5	stimuli/Faces/EMBfemale21-2neutral.bmp		1.1127	Hit
303.5847	2.5	stimuli/Faces/JWmale73neutral.bmp		1.0961	FA
306.8202	2.5	stimuli/Faces/EMIfemale25-2neutral.bmp		1.2593	CR
310.5227	2.5	stimuli/Faces/TMBfemale40neutral.bmp		1.5969	FA
314.4276	2.5	stimuli/Faces/EMBfemale21-4neutral.bmp		1.2938	FA
318.4137	2.5	stimuli/Faces/TMWmale32neutral.bmp		1.0111	Miss
321.9813	2.5	stimuli/Faces/TSFWmale75-3neutral.bmp		2.3531	Miss
325.1179	2.5	stimuli/Faces/JWfemale69-2neutral.bmp		1.7732	FA
328.8702	2.5	stimuli/Faces/JWmale80neutral.bmp		1.2886	FA
332.0720	2.5	stimuli/Faces/Wmale_55-3.bmp		2.1201	Miss
335.1911	2.5	stimuli/Faces/JWfemale63-3neutral.bmp		1.6393	FA
338.3932	2.5	stimuli/Faces/EMBfemale33neutral.bmp		1.0801	Hit
342.1960	2.5	stimuli/Faces/TSFWmale68-2neutral.bmp		1.0529	Miss
345.6317	2.5	stimuli/Faces/EMBfemale29neutral.bmp		1.1366	Hit
349.4844	2.5	stimuli/Faces/EMImale25neutral.bmp		1.8921	Miss
