onset	duration	face	response	response_time	trial_type
1.0503	2.5	stimuli/Faces/EMWfemale21-3neutral.bmp		1.8067	Subsequent_Hit
4.5199	2.5	stimuli/Faces/EMWmale40neutral.bmp		1.0862	Subsequent_Miss
8.3405	2.5	stimuli/Faces/Wmale_55-2.bmp		1.2456	Subsequent_NoResp
11.9439	2.5	stimuli/Faces/EMWfemale22-3neutral.bmp		2.0840	Subsequent_Hit
15.6114	2.5	stimuli/Faces/TMWfemale37neutral.bmp		1.9696	Subsequent_Hit
18.8305	2.5	stimuli/Faces/TSFBmale50neutral.bmp		1.7795	Subsequent_Hit
21.9325	2.5	stimuli/Faces/TSFBfemale65-2neutral.bmp		0.8856	Subsequent_Hit
25.1353	2.5	stimuli/Faces/EMWmale19-3neutral.bmp		2.0955	Subsequent_Hit
28.6039	2.5	stimuli/Faces/EMWmale21-3neutral.bmp		0.9881	Subsequent_Hit
32.4241	2.5	stimuli/Faces/JWmale38neutral.bmp		0.7100	Subsequent_Miss
35.6757	2.5	stimuli/Faces/JWfemale66neutral.bmp		0.8201	Subsequent_Hit
39.6622	2.5	stimuli/Faces/EMBfemale22-4neutral.bmp		1.1658	Subsequent_Hit
42.6811	2.5	stimuli/Faces/JWfemale78-3neutral.bmp		1.9508	Subsequent_Hit
46.0505	2.5	stimuli/Faces/WBmale31neutral.bmp		1.7675	Subsequent_Miss
49.7525	2.5	stimuli/Faces/WBfemale47neutral.bmp		0.5886	Subsequent_Hit
53.1057	2.5	stimuli/Faces/EMWfemale21-5neutral.bmp		1.6162	Subsequent_Hit
56.5575	2.5	stimuli/Faces/TMBfemale30neutral.bmp		1.4964	Subsequent_Hit
60.5268	2.5	stimuli/Faces/EMImale23-2neutral.bmp		0.9182	Subsequent_Hit
64.5141	2.5	stimuli/Faces/JWfemale42neutral.bmp		2.0467	Subsequent_Hit
67.6155	2.5	stimuli/Faces/EMImale23-4neutral.bmp		1.7089	Subsequent_Hit
71.2676	2.5	stimuli/Faces/JWfemale74neutral.bmp		0.6581	Subsequent_Hit
75.1539	2.5	stimuli/Faces/JWfemale44neutral.bmp	NaN	NaN	Subsequent_Hit
78.2061	2.5	stimuli/Faces/TMWfemale35neutral.bmp		0.7988	Subsequent_Hit
81.7093	2.5	stimuli/Faces/JWfemale83neutral.bmp		1.1504	Subsequent_Hit
85.1938	2.5	stimuli/Faces/TMBmale49neutral.bmp		0.7424	Subsequent_Hit
88.2652	2.5	stimuli/Faces/EMBfemale25neutral.bmp		1.3688	Subsequent_Hit
92.2333	2.5	stimuli/Faces/EMImale25neutral.bmp		1.4543	Subsequent_Hit
95.8876	2.5	stimuli/Faces/EMWmale32neutral.bmp		1.6912	Subsequent_Hit
99.8713	2.5	stimuli/Faces/JWfemale74-2neutral.bmp		0.6755	Subsequent_Hit
102.9915	2.5	stimuli/Faces/TSFBmale77neutral.bmp		0.7253	Subsequent_Hit
106.9097	2.5	stimuli/Faces/JWfemale76-3neutral.bmp		1.7023	Subsequent_Hit
110.6962	2.5	stimuli/Faces/Wmale_55.bmp		1.3336	Subsequent_Hit
114.4663	2.5	stimuli/Faces/TMBfemale57neutral.bmp		0.6195	Subsequent_Miss
117.9180	2.5	stimuli/Faces/JWmale81-2neutral.bmp		0.7667	Subsequent_Hit
121.1695	2.5	stimuli/Faces/JWfemale60neutral.bmp		0.9852	Subsequent_Hit
124.9231	2.5	stimuli/Faces/EMImale21-2neutral.bmp		1.1036	Subsequent_Hit
128.2086	2.5	stimuli/Faces/JWfemale78-6neutral.bmp		0.7000	Subsequent_Hit
131.3799	2.5	stimuli/Faces/TMWfemale43neutral.bmp		0.9898	Subsequent_Hit
134.4630	2.5	stimuli/Faces/TMBmale21neutral.bmp		0.7805	Subsequent_Hit
137.8489	2.5	stimuli/Faces/TMWmale71neutral.bmp		1.0808	Subsequent_Hit
141.5691	2.5	stimuli/Faces/TSFWmale57neutral.bmp		1.2017	Subsequent_Hit
145.5377	2.5	stimuli/Faces/EMWmale33neutral.bmp		0.7020	Subsequent_Hit
149.0400	2.5	stimuli/Faces/TSFWfemale34neutral.bmp		1.1578	Subsequent_Hit
152.9775	2.5	stimuli/Faces/TMWmale43neutral.bmp		1.1283	Subsequent_Hit
156.6981	2.5	stimuli/Faces/TMBmale39neutral.bmp		1.0537	Subsequent_Hit
160.5318	2.5	stimuli/Faces/JWfemale67-4neutral.bmp		0.7386	Subsequent_Hit
163.8019	2.5	stimuli/Faces/TSFBfemale54neutral.bmp		1.3855	Subsequent_Hit
166.8531	2.5	stimuli/Faces/EMBmale55neutral.bmp		1.1386	Subsequent_Hit
170.6898	2.5	stimuli/Faces/EMImale25-2neutral.bmp		1.1487	Subsequent_Hit
174.6252	2.5	stimuli/Faces/TMWfemale34-2neutral.bmp		1.0265	Subsequent_Hit
177.9119	2.5	stimuli/Faces/TSFWmale77neutral.bmp		0.7439	Subsequent_Miss
181.7146	2.5	stimuli/Faces/TMBmale41neutral.bmp		0.8051	Subsequent_Hit
185.6678	2.5	stimuli/Faces/JWmale86neutral.bmp		1.5315	Subsequent_Hit
188.8871	2.5	stimuli/Faces/EMIfemale19neutral.bmp		1.4907	Subsequent_Hit
192.2876	2.5	stimuli/Faces/EMWmale19neutral.bmp		1.1530	Subsequent_Hit
195.5911	2.5	stimuli/Faces/TSFBfemale50neutral.bmp		1.4205	Subsequent_Miss
199.0270	2.5	stimuli/Faces/EMIfemale25-2neutral.bmp		0.8955	Subsequent_Hit
202.5452	2.5	stimuli/Faces/TMWmale34neutral.bmp		1.0504	Subsequent_Hit
206.0814	2.5	stimuli/Faces/TSFWmale71neutral.bmp		1.7083	Subsequent_Hit
209.2497	2.5	stimuli/Faces/TSFWmale79-3neutral.bmp		0.7537	Subsequent_Hit
213.1361	2.5	stimuli/Faces/JWfemale77-2neutral.bmp		1.7225	Subsequent_Hit
216.5549	2.5	stimuli/Faces/TMWmale25-2neutral.bmp		1.2536	Subsequent_Hit
219.9257	2.5	stimuli/Faces/TMWfemale31neutral.bmp		1.2243	Subsequent_Hit
223.6945	2.5	stimuli/Faces/TSFWmale61neutral.bmp		1.1052	Subsequent_Miss
227.4977	2.5	stimuli/Faces/TSFBfemale65-3neutral.bmp		0.7337	Subsequent_Hit
230.6151	2.5	stimuli/Faces/TSFWmale37neutral.bmp		0.9725	Subsequent_Hit
233.8842	2.5	stimuli/Faces/EMBfemale49neutral.bmp		1.7085	Subsequent_Hit
237.2026	2.5	stimuli/Faces/EMBfemale29neutral.bmp		1.4819	Subsequent_Hit
240.7719	2.5	stimuli/Faces/TSFWmale54neutral.bmp		1.0168	Subsequent_Miss
244.1264	2.5	stimuli/Faces/JBmale68neutral.bmp		0.7461	Subsequent_Miss
247.3273	2.5	stimuli/Faces/TSFBfemale74-2neutral.bmp		1.2830	Subsequent_Hit
250.8463	2.5	stimuli/Faces/TMBmale28neutral.bmp		1.4240	Subsequent_Hit
254.8661	2.5	stimuli/Faces/EMImale24-4neutral.bmp		0.9783	Subsequent_Hit
258.6185	2.5	stimuli/Faces/EMBmale26neutral.bmp		1.6099	Subsequent_Hit
261.9557	2.5	stimuli/Faces/JWmale80neutral.bmp		1.4767	Subsequent_Hit
265.0239	2.5	stimuli/Faces/EMBmale20neutral.bmp		2.1234	Subsequent_Hit
268.5945	2.5	stimuli/Faces/JWmale89neutral.bmp		0.7148	Subsequent_Hit
272.4953	2.5	stimuli/Faces/EMWmale52neutral.bmp		1.6180	Subsequent_Hit
275.8144	2.5	stimuli/Faces/JWfemale69-2neutral.bmp		0.8788	Subsequent_Hit
279.4336	2.5	stimuli/Faces/EMWfemale18-2neutral.bmp		0.9742	Subsequent_NoResp
283.3029	2.5	stimuli/Faces/EMBfemale22-3neutral.bmp		0.6113	Subsequent_Miss
286.8888	2.5	stimuli/Faces/EMBfemale20-2neutral.bmp		2.0124	Subsequent_Hit
290.1413	2.5	stimuli/Faces/TSFWmale67-2neutral.bmp		0.7349	Subsequent_Hit
293.2934	2.5	stimuli/Faces/EMImale24-2neutral.bmp		0.7670	Subsequent_Hit
296.6971	2.5	stimuli/Faces/TSFWmale75-3neutral.bmp		0.6394	Subsequent_Hit
300.3834	2.5	stimuli/Faces/EMWfemale30neutral.bmp		0.7789	Subsequent_Hit
304.2364	2.5	stimuli/Faces/TMWfemale40neutral.bmp		1.0187	Subsequent_Hit
307.4367	2.5	stimuli/Faces/EMWfemale22neutral.bmp		1.2226	Subsequent_Hit
311.0565	2.5	stimuli/Faces/TSFWmale46neutral.bmp		1.2349	Subsequent_Hit
314.6434	2.5	stimuli/Faces/EMBfemale21-2neutral.bmp		1.3150	Subsequent_Hit
318.5280	2.5	stimuli/Faces/TMWmale41neutral.bmp		0.6961	Subsequent_Hit
322.1316	2.5	stimuli/Faces/TSFWmale88neutral.bmp		1.8349	Subsequent_Hit
325.7855	2.5	stimuli/Faces/TMWmale45neutral.bmp		1.1629	Subsequent_Hit
329.3383	2.5	stimuli/Faces/JWfemale65-4neutral.bmp		0.7950	Subsequent_Miss
332.3713	2.5	stimuli/Faces/EMBfemale21-3neutral.bmp		0.6528	Subsequent_Hit
336.0747	2.5	stimuli/Faces/EMImale23-6neutral.bmp		0.6455	Subsequent_Hit
339.4765	2.5	stimuli/Faces/TMWmale34-2neutral.bmp		1.3638	Subsequent_Hit
343.1951	2.5	stimuli/Faces/TSFWmale74neutral.bmp		0.8431	Subsequent_Hit
346.3313	2.5	stimuli/Faces/TMBmale30neutral.bmp		1.0301	Subsequent_Hit
349.4845	2.5	stimuli/Faces/JWfemale65-2neutral.bmp		0.8828	Subsequent_Miss
