onset	duration	word	response	response_time	trial_type
0.8507	2.5	Wig		1.3770	Subsequent_Hit
4.5533	2.5	House		0.7936	Subsequent_NoResp
8.1226	2.5	Brick		0.9701	Subsequent_Hit
11.6752	2.5	Pea		0.9654	Subsequent_Hit
14.9275	2.5	Sheep		0.6903	Subsequent_Hit
18.0298	2.5	Door		1.0708	Subsequent_Hit
22.0327	2.5	Rat		0.7320	Subsequent_Hit
25.7022	2.5	Rocket		1.0495	Subsequent_Hit
29.6717	2.5	Belt		0.9271	Subsequent_Hit
33.0410	2.5	Whale		1.0459	Subsequent_Hit
36.7945	2.5	Potato		0.9372	Subsequent_NoResp
40.5629	2.5	Beef		0.7366	Subsequent_Hit
43.6816	2.5	Radio		1.1180	Subsequent_Hit
47.0343	2.5	Snow		0.6945	Subsequent_Hit
50.1196	2.5	Garlic		0.8820	Subsequent_Hit
53.2880	2.5	Eye		1.8006	Subsequent_Hit
56.4908	2.5	Jeep		0.9198	Subsequent_Hit
60.4939	2.5	Sheet		1.2619	Subsequent_Hit
64.0130	2.5	Walnut		0.8087	Subsequent_Hit
67.5320	2.5	Ink		1.1247	Subsequent_NoResp
71.3347	2.5	Lemonade		0.7322	Subsequent_Hit
75.0374	2.5	Teeth		1.3592	Subsequent_Hit
78.9575	2.5	Plum		1.1863	Subsequent_Hit
82.9099	2.5	Cake		0.7268	Subsequent_Hit
86.4622	2.5	Flag		1.1899	Subsequent_Hit
89.6483	2.5	Duck		0.6556	Subsequent_Hit
93.2343	2.5	Blouse		1.4403	Subsequent_NoResp
96.5033	2.5	Camera		0.9735	Subsequent_Hit
99.6721	2.5	Heart		1.5706	Subsequent_Hit
103.2911	2.5	Basin		0.8765	Subsequent_Hit
106.5783	2.5	Banana		1.0355	Subsequent_Hit
109.7292	2.5	Telephone		1.4584	Subsequent_Hit
113.6988	2.5	Cherry		1.3710	Subsequent_Hit
117.1015	2.5	Frog		1.4712	Subsequent_Hit
120.8372	2.5	Diamond		1.0735	Subsequent_Hit
124.2563	2.5	Sparrow		2.0187	Subsequent_Hit
127.7254	2.5	Van		0.9672	Subsequent_Hit
131.2125	2.5	Tiger		0.7734	Subsequent_Hit
134.5978	2.5	Rum		0.9217	Subsequent_NoResp
138.6169	2.5	Jaw		1.9851	Subsequent_Hit
142.4696	2.5	Bed		0.7681	Subsequent_Hit
146.3055	2.5	Peach		1.1482	Subsequent_Hit
149.8081	2.5	Pie		0.6417	Subsequent_Hit
152.8768	2.5	Chair		1.7908	Subsequent_Hit
156.3296	2.5	Boat		0.9769	Subsequent_Hit
159.8655	2.5	Sun		0.6803	Subsequent_Hit
163.7679	2.5	Curler		1.2148	Subsequent_Hit
167.2374	2.5	Blood		1.3731	Subsequent_Hit
171.1404	2.5	Seed		1.8372	Subsequent_Hit
174.9428	2.5	Meal		0.9258	Subsequent_Hit
178.0120	2.5	Cookie		0.7567	Subsequent_Hit
181.6645	2.5	Rice		1.2922	Subsequent_Hit
184.9014	2.5	Window		1.2163	Subsequent_Hit
187.9188	2.5	Strawberry		0.9969	Subsequent_Hit
191.9052	2.5	Hand		1.5305	Subsequent_Hit
195.3232	2.5	Umbrella		1.4014	Subsequent_Hit
199.2272	2.5	Chestnut		0.7908	Subsequent_NoResp
202.8130	2.5	Toe		1.2686	Subsequent_Hit
206.5988	2.5	Typewriter		1.1310	Subsequent_Hit
210.0514	2.5	Drum		1.5022	Subsequent_Hit
213.8541	2.5	Knife		1.1486	Subsequent_Hit
217.2568	2.5	Rock		0.8997	Subsequent_Hit
221.1931	2.5	Pants		2.0055	Subsequent_Hit
224.7623	2.5	Walrus		1.4193	Subsequent_Hit
228.4480	2.5	Spoon		1.6466	Subsequent_Hit
232.0669	2.5	Weed		0.8288	Subsequent_Hit
235.1029	2.5	Fur		1.8477	Subsequent_Hit
238.8555	2.5	Frost		0.7702	Subsequent_Hit
242.0744	2.5	Cigarette		0.6632	Subsequent_NoResp
245.3932	2.5	Necklace		1.0813	Subsequent_Hit
249.0132	2.5	Pedal		1.8934	Subsequent_Hit
252.3320	2.5	Mouse		2.0146	Subsequent_Hit
255.6343	2.5	Cement		0.8214	Subsequent_Hit
258.8869	2.5	Thread		1.9818	Subsequent_Hit
262.5557	2.5	Tent		0.9658	Subsequent_NoResp
265.6746	2.5	Soup		1.8759	Subsequent_Miss
269.5611	2.5	Snake		0.6654	Subsequent_Hit
272.6631	2.5	Apple		1.3545	Subsequent_Hit
275.9652	2.5	Beetle		1.5902	Subsequent_Hit
279.6849	2.5	Jacket	NaN	NaN	Subsequent_Hit
282.8717	2.5	Grape	NaN	NaN	Subsequent_Hit
286.0227	2.5	Bread		1.4068	Subsequent_Hit
289.6254	2.5	Stomach		0.9560	Subsequent_Hit
293.0113	2.5	Rose	NaN	NaN	Subsequent_Hit
296.8485	2.5	Steak	NaN	NaN	Subsequent_Hit
300.5999	2.5	Beach		1.2097	Subsequent_Hit
303.8356	2.5	Straw		1.3130	Subsequent_Hit
306.9547	2.5	Film		1.0348	Subsequent_Hit
310.0069	2.5	Bridge		1.7118	Subsequent_Hit
313.4927	2.5	Shark		0.6920	Subsequent_Hit
317.3951	2.5	Land		0.8345	Subsequent_Hit
321.0982	2.5	Ceiling		1.6025	Subsequent_Hit
324.4503	2.5	Bath		1.1172	Subsequent_Hit
328.3197	2.5	Orange		1.1509	Subsequent_Hit
332.1893	2.5	Bandage		0.9153	Subsequent_Hit
335.4756	2.5	Tea		1.2220	Subsequent_Hit
339.2790	2.5	Cereal		0.8517	Subsequent_Hit
342.4802	2.5	Pig	NaN	NaN	Subsequent_NoResp
346.1326	2.5	Tomato		0.9179	Subsequent_Hit
349.1683	2.5	Pin		1.3201	Subsequent_Hit
