onset	duration	face	response	response_time	trial_type
1.4009	2.5	stimuli/Faces/TSFWmale70neutral.bmp		1.2301	FA
4.4366	2.5	stimuli/Faces/EMIfemale19neutral.bmp		0.7834	Hit
8.0892	2.5	stimuli/Faces/JWfemale48neutral.bmp		1.2082	CR
11.2916	2.5	stimuli/Faces/TSFWmale61neutral.bmp		1.0666	Hit
14.8608	2.5	stimuli/Faces/JWmale86neutral.bmp		1.1031	CR
18.3486	2.5	stimuli/Faces/TMWmale37-2neutral.bmp		1.1944	Hit
22.1661	2.5	stimuli/Faces/EMWfemale20-2neutral.bmp		0.9912	CR
25.3517	2.5	stimuli/Faces/TMBmale30neutral.bmp		1.1073	Hit
29.0711	2.5	stimuli/Faces/TMWmale41neutral.bmp		1.5739	CR
32.8571	2.5	stimuli/Faces/EMBmale55neutral.bmp		2.3050	CR
36.6599	2.5	stimuli/Faces/EMIfemale26neutral.bmp		1.0840	CR
40.6460	2.5	stimuli/Faces/TMWfemale35neutral.bmp		1.9051	FA
44.6489	2.5	stimuli/Faces/JWmale73neutral.bmp		1.2114	FA
47.9851	2.5	stimuli/Faces/Wmale_65.bmp		1.0511	Hit
51.1204	2.5	stimuli/Faces/EMWmale33neutral.bmp		1.3627	Hit
54.1412	2.5	stimuli/Faces/TSFWmale57neutral.bmp		0.8920	Hit
58.0252	2.5	stimuli/Faces/TMBmale21neutral.bmp		1.5749	CR
61.4610	2.5	stimuli/Faces/TMWmale79neutral.bmp		2.1422	Miss
65.0310	2.5	stimuli/Faces/EMBfemale21-2neutral.bmp		2.0849	CR
68.0828	2.5	stimuli/Faces/EMBfemale33neutral.bmp		1.2533	Hit
71.9685	2.5	stimuli/Faces/JWfemale78neutral.bmp		1.2580	CR
75.1713	2.5	stimuli/Faces/JWmale69-2neutral.bmp		1.3468	Hit
78.3909	2.5	stimuli/Faces/EMBfemale25neutral.bmp		1.3258	Hit
82.1260	2.5	stimuli/Faces/TSFBfemale74-2neutral.bmp		2.1690	CR
85.4792	2.5	stimuli/Faces/TSFWmale77neutral.bmp		1.8489	Hit
89.1475	2.5	stimuli/Faces/JWfemale65-6neutral.bmp		1.3924	CR
93.0842	2.5	stimuli/Faces/TSFWmale79-3neutral.bmp		1.8278	CR
96.1207	2.5	stimuli/Faces/JWfemale60neutral.bmp		1.1144	Hit
99.2558	2.5	stimuli/Faces/JWmale65neutral.bmp		1.4392	Miss
102.7236	2.5	stimuli/Faces/JWfemale69-2neutral.bmp		1.3772	Hit
106.3930	2.5	stimuli/Faces/TMWmale30neutral.bmp		1.0569	CR
110.1959	2.5	stimuli/Faces/JWfemale37neutral.bmp		1.1801	CR
113.7825	2.5	stimuli/Faces/TMWfemale43neutral.bmp		0.9557	CR
117.3678	2.5	stimuli/Faces/WBmale31neutral.bmp		1.8073	CR
121.0704	2.5	stimuli/Faces/TMWfemale37neutral.bmp		0.9826	CR
125.0399	2.5	stimuli/Faces/TSFWmale71-4neutral.bmp		2.1972	CR
128.4093	2.5	stimuli/Faces/TSFWmale69neutral.bmp		0.8607	Hit
132.3118	2.5	stimuli/Faces/EMWmale19-3neutral.bmp		0.9151	CR
136.0334	2.5	stimuli/Faces/TMBmale49neutral.bmp		1.6747	FA
139.3329	2.5	stimuli/Faces/JWmale71neutral.bmp		1.4452	Hit
143.1695	2.5	stimuli/Faces/TMWmale34-3neutral.bmp		1.8786	CR
146.2908	2.5	stimuli/Faces/TMWmale32neutral.bmp		1.1443	Hit
149.6743	2.5	stimuli/Faces/TMWmale22-3neutral.bmp		1.0796	Hit
153.3270	2.5	stimuli/Faces/JWmale70neutral.bmp		1.0642	CR
156.7295	2.5	stimuli/Faces/EMImale23-4neutral.bmp		1.3235	Hit
160.2820	2.5	stimuli/Faces/TSFWfemale52-2neutral.bmp		0.8199	CR
163.6343	2.5	stimuli/Faces/TSFWmale75-3neutral.bmp		1.3227	Hit
166.9369	2.5	stimuli/Faces/Wmale_55-2.bmp		1.0392	Hit
170.8891	2.5	stimuli/Faces/TSFWmale79neutral.bmp		2.2200	CR
174.1767	2.5	stimuli/Faces/TMWmale25-2neutral.bmp		1.0194	Hit
177.2791	2.5	stimuli/Faces/JWmale80neutral.bmp		0.7500	Hit
180.9969	2.5	stimuli/Faces/TMWfemale40neutral.bmp		2.3299	CR
184.4999	2.5	stimuli/Faces/JWfemale64-3neutral.bmp		0.8723	Hit
188.4021	2.5	stimuli/Faces/Wmale_55-3.bmp		1.3599	CR
191.5550	2.5	stimuli/Faces/TSFBmale50neutral.bmp		2.4331	Hit
195.0902	2.5	stimuli/Faces/TMBfemale57neutral.bmp		1.7149	FA
198.5446	2.5	stimuli/Faces/EMIfemale25-2neutral.bmp		1.1740	Hit
201.6614	2.5	stimuli/Faces/TSFWmale66-2neutral.bmp		1.7097	Hit
205.6812	2.5	stimuli/Faces/TMBfemale33neutral.bmp		1.7898	CR
208.7500	2.5	stimuli/Faces/JWfemale77-2neutral.bmp		0.9681	Hit
212.3521	2.5	stimuli/Faces/TSFWfemale34neutral.bmp		1.2620	CR
216.3556	2.5	stimuli/Faces/JWfemale78-3neutral.bmp		2.0255	CR
220.1249	2.5	stimuli/Faces/EMBmale26neutral.bmp		1.4510	FA
223.5440	2.5	stimuli/Faces/TSFBfemale67neutral.bmp		1.0167	Hit
227.1809	2.5	stimuli/Faces/JWfemale76-4neutral.bmp		1.2431	CR
230.9327	2.5	stimuli/Faces/EMWfemale18-2neutral.bmp		2.1073	CR
234.8523	2.5	stimuli/Faces/TMWmale37neutral.bmp		1.2230	CR
238.8382	2.5	stimuli/Faces/TSFBfemale65-2neutral.bmp		1.1167	FA
242.3252	2.5	stimuli/Faces/TMBfemale51neutral.bmp		1.0687	Hit
246.0944	2.5	stimuli/Faces/EMWmale21-3neutral.bmp		1.7344	FA
249.6457	2.5	stimuli/Faces/TSFWmale71neutral.bmp		1.4654	CR
253.1650	2.5	stimuli/Faces/JWmale38neutral.bmp		1.2041	CR
256.8511	2.5	stimuli/Faces/EMWfemale21-3neutral.bmp		1.9029	CR
260.2538	2.5	stimuli/Faces/TMBmale24neutral.bmp		0.9291	Hit
263.5227	2.5	stimuli/Faces/EMImale25neutral.bmp		1.2921	Hit
267.3922	2.5	stimuli/Faces/TMBmale44neutral.bmp		0.7838	FA
271.1446	2.5	stimuli/Faces/JWmale89neutral.bmp		2.0046	CR
274.3990	2.5	stimuli/Faces/TSFWmale87neutral.bmp		1.8030	Hit
277.6181	2.5	stimuli/Faces/TMWfemale31neutral.bmp		1.0089	Hit
280.9860	2.5	stimuli/Faces/JWmale79neutral.bmp		1.8249	Miss
284.0886	2.5	stimuli/Faces/JWmale88neutral.bmp		1.0465	Hit
287.3567	2.5	stimuli/Faces/JWfemale74neutral.bmp		0.9283	Miss
290.8590	2.5	stimuli/Faces/JWfemale78-6neutral.bmp		2.2291	Miss
294.0613	2.5	stimuli/Faces/EMIfemale25neutral.bmp		1.1564	Hit
297.5146	2.5	stimuli/Faces/TMBfemale33-2neutral.bmp		1.1534	Hit
300.8162	2.5	stimuli/Faces/JWfemale42neutral.bmp		1.5520	Hit
304.0691	2.5	stimuli/Faces/JWfemale63-3neutral.bmp		1.5650	Miss
307.4894	2.5	stimuli/Faces/EMWfemale24-2neutral.bmp		1.2797	Hit
311.3070	2.5	stimuli/Faces/TSFBfemale65-3neutral.bmp		1.9909	CR
314.9263	2.5	stimuli/Faces/EMBfemale26neutral.bmp		0.9868	FA
318.0970	2.5	stimuli/Faces/EMWfemale22-3neutral.bmp		1.1659	Hit
321.4314	2.5	stimuli/Faces/EMImale23-2neutral.bmp		1.5847	Hit
325.0501	2.5	stimuli/Faces/TSFBfemale50neutral.bmp		1.5740	CR
329.0206	2.5	stimuli/Faces/TMWmale45neutral.bmp		1.7044	CR
332.0905	2.5	stimuli/Faces/JBmale68neutral.bmp		1.9785	Miss
335.9754	2.5	stimuli/Faces/EMWfemale30neutral.bmp		1.1346	CR
339.8951	2.5	stimuli/Faces/TSFBfemale63-2neutral.bmp		1.9538	FA
343.2972	2.5	stimuli/Faces/EMImale24-4neutral.bmp		0.6948	Hit
346.4656	2.5	stimuli/Faces/EMBfemale22-3neutral.bmp		1.3083	Hit
349.5516	2.5	stimuli/Faces/EMWfemale21-5neutral.bmp		1.5864	Hit
