onset	duration	word	response	response_time	trial_type
0.5657	2.5	Duck		0.7042	Subsequent_Hit
3.6181	2.5	Ice		0.7327	Subsequent_Hit
6.9700	2.5	Earthworm		1.0998	Subsequent_Hit
10.7730	2.5	Camera		0.7998	Subsequent_Hit
13.8085	2.5	Sand		0.7263	Subsequent_Hit
17.4110	2.5	Door		0.7168	Subsequent_Hit
20.4966	2.5	Bracelet		0.8451	Subsequent_Miss
24.1159	2.5	Heart		0.7014	Subsequent_Hit
27.5850	2.5	Walrus		1.2518	Subsequent_Hit
30.7541	2.5	Frog		1.2176	Subsequent_Hit
34.0731	2.5	Wool		1.0537	Subsequent_Hit
38.0262	2.5	Sun		0.6037	Subsequent_Miss
41.6788	2.5	Bath		0.8169	Subsequent_Hit
44.8642	2.5	Kettle		1.1606	Subsequent_Hit
48.7170	2.5	Skirt		0.8819	Subsequent_Hit
52.4866	2.5	Fur		0.7154	Subsequent_Hit
56.1889	2.5	House		1.0297	Subsequent_Miss
59.3403	2.5	Cereal		0.8125	Subsequent_Hit
63.1606	2.5	Blood		1.2662	Subsequent_Hit
66.8813	2.5	Curler		2.3604	Subsequent_Hit
70.4326	2.5	Forest		0.7241	Subsequent_Miss
74.1021	2.5	Tiger		0.8306	Subsequent_Hit
77.5212	2.5	Sofa		0.6806	Subsequent_Hit
80.6399	2.5	Lamb		0.7248	Subsequent_Hit
84.1926	2.5	Eye		0.6681	Subsequent_Hit
87.9785	2.5	Radio		0.6752	Subsequent_Hit
91.3972	2.5	Glove		0.6908	Subsequent_Hit
94.7000	2.5	Lemonade		0.8518	Subsequent_Hit
98.0523	2.5	Plum		0.7304	Subsequent_Hit
101.5715	2.5	Jeep		0.7730	Subsequent_Hit
104.6241	2.5	Book		0.6395	Subsequent_Hit
108.0765	2.5	Cork		0.7144	Subsequent_Hit
111.5455	2.5	Soda		0.7051	Subsequent_Miss
114.6324	2.5	Cement		0.9173	Subsequent_Hit
117.8666	2.5	Stick		0.9431	Subsequent_Miss
121.5031	2.5	Tea		1.1285	Subsequent_Hit
124.5051	2.5	Cabbage		1.2505	Subsequent_Hit
128.2743	2.5	Rat		0.6654	Subsequent_Hit
131.9770	2.5	Beach		0.5376	Subsequent_Hit
135.2629	2.5	Rock		0.7616	Subsequent_Hit
139.1321	2.5	Pie		0.6437	Subsequent_Hit
142.6860	2.5	Bandage		0.9928	Subsequent_Hit
146.0037	2.5	Shed		1.0799	Subsequent_Hit
149.5062	2.5	Film		0.7513	Subsequent_Hit
153.4922	2.5	Knife		0.9241	Subsequent_Hit
156.6945	2.5	Coat		0.5560	Subsequent_Hit
160.0134	2.5	Mountain		0.7191	Subsequent_Hit
163.1325	2.5	Walnut		0.7700	Subsequent_Hit
166.5020	2.5	Shirt		1.0752	Subsequent_Hit
169.7706	2.5	Balloon		1.1338	Subsequent_Hit
173.4898	2.5	Blouse		1.0827	Subsequent_Hit
176.9425	2.5	Lamp		1.0601	Subsequent_Hit
180.0947	2.5	Sheep		0.7538	Subsequent_Hit
183.4471	2.5	Rocket		1.4454	Subsequent_Hit
186.4829	2.5	Tent		1.4015	Subsequent_Hit
189.7017	2.5	Rice		1.3056	Subsequent_Miss
193.6379	2.5	Collar		0.9596	Subsequent_Hit
197.3072	2.5	Garden		1.1523	Subsequent_Hit
200.6927	2.5	Car		1.2288	Subsequent_Hit
203.7950	2.5	Snake		1.1034	Subsequent_Hit
207.4307	2.5	Wig		1.2947	Subsequent_Hit
211.2840	2.5	Lion		1.0759	Subsequent_Hit
214.8195	2.5	Needle		1.3320	Subsequent_Hit
218.7890	2.5	Meal		0.8332	Subsequent_Hit
222.5084	2.5	Button		1.6301	Subsequent_Hit
225.9108	2.5	Pickle		1.1556	Subsequent_Hit
229.6635	2.5	Grasshopper		1.6547	Subsequent_Hit
233.6664	2.5	Cherry		0.8821	Subsequent_Hit
237.4019	2.5	Chair		0.9985	Subsequent_Miss
240.5381	2.5	Rug		0.9542	Subsequent_Hit
244.3909	2.5	Clown		1.2024	Subsequent_Hit
248.2770	2.5	Teeth		0.7534	Subsequent_Hit
251.8629	2.5	Carrot		0.9004	Subsequent_Hit
255.4487	2.5	Tooth		0.9586	Subsequent_Hit
259.3504	2.5	Potato		0.9640	Subsequent_Hit
262.8541	2.5	Elbow		0.9201	Subsequent_Miss
266.5399	2.5	Straw		0.9825	Subsequent_Hit
269.7424	2.5	Cheese		0.8970	Subsequent_Hit
273.7617	2.5	Stone		1.3265	Subsequent_Hit
277.0141	2.5	Nose		0.7575	Subsequent_Hit
280.2678	2.5	Puddle		1.0383	Subsequent_Hit
284.0860	2.5	Weed		0.9113	Subsequent_Hit
287.9886	2.5	Pond		0.5957	Subsequent_Hit
291.9414	2.5	Cigarette		0.7958	Subsequent_Hit
295.1273	2.5	Cream		0.5650	Subsequent_Hit
298.3627	2.5	Hat		1.5634	Subsequent_Hit
302.1654	2.5	Water		0.9197	Subsequent_Hit
305.5346	2.5	Milk		0.8285	Subsequent_Hit
309.0369	2.5	Ink		1.5323	Subsequent_Hit
312.9410	2.5	Tomato		0.9253	Subsequent_Hit
316.3435	2.5	Spoon		0.6999	Subsequent_Miss
320.2450	2.5	Bean		0.8111	Subsequent_Hit
323.3637	2.5	Banana		0.7424	Subsequent_Hit
326.8497	2.5	Umbrella		0.8904	Subsequent_Hit
330.8193	2.5	Cookie		0.7038	Subsequent_Hit
334.8224	2.5	Jacket		0.9736	Subsequent_Hit
338.6587	2.5	Head		0.7342	Subsequent_Hit
342.2120	2.5	Chalk		1.3302	Subsequent_Hit
345.4970	2.5	Soup	NaN	NaN	Subsequent_Hit
349.0990	2.5	Pear		0.9251	Subsequent_Hit
