onset	duration	face	response	response_time	trial_type
1.0832	2.5	stimuli/Faces/TSFBfemale61neutral.bmp		1.1782	Subsequent_Hit
4.2359	2.5	stimuli/Faces/JWfemale64-3neutral.bmp		0.8745	Subsequent_Hit
7.7554	2.5	stimuli/Faces/TSFWmale79neutral.bmp	NaN	NaN	Subsequent_Hit
11.7428	2.5	stimuli/Faces/JWmale83neutral.bmp	NaN	NaN	Subsequent_Miss
14.8598	2.5	stimuli/Faces/TSFWmale79-3neutral.bmp		1.0116	Subsequent_Miss
18.6797	2.5	stimuli/Faces/EMBmale20neutral.bmp	NaN	NaN	Subsequent_Hit
21.9320	2.5	stimuli/Faces/TMWfemale36neutral.bmp	NaN	NaN	Subsequent_Hit
25.8522	2.5	stimuli/Faces/TSFWmale74neutral.bmp	NaN	NaN	Subsequent_Miss
29.7389	2.5	stimuli/Faces/Wmale_65.bmp		1.6586	Subsequent_Miss
33.4069	2.5	stimuli/Faces/TMWmale37neutral.bmp		0.9603	Subsequent_Hit
36.4762	2.5	stimuli/Faces/TMBfemale41neutral.bmp		1.3012	Subsequent_Hit
39.7947	2.5	stimuli/Faces/EMWmale32neutral.bmp		1.4127	Subsequent_Hit
43.4807	2.5	stimuli/Faces/JWfemale76-3neutral.bmp		1.5115	Subsequent_Hit
47.0331	2.5	stimuli/Faces/EMBfemale20neutral.bmp		1.0434	Subsequent_Hit
50.0855	2.5	stimuli/Faces/EMWmale52neutral.bmp	NaN	NaN	Subsequent_Hit
53.1896	2.5	stimuli/Faces/TMWfemale31neutral.bmp	NaN	NaN	Subsequent_Hit
56.8572	2.5	stimuli/Faces/Wmale_55.bmp		1.2124	Subsequent_Miss
60.0423	2.5	stimuli/Faces/JWfemale68-2neutral.bmp		0.9349	Subsequent_Hit
63.1948	2.5	stimuli/Faces/EMImale23-2neutral.bmp		0.9534	Subsequent_Hit
66.6470	2.5	stimuli/Faces/EMBfemale21-2neutral.bmp		1.0503	Subsequent_Hit
70.4683	2.5	stimuli/Faces/EMWmale21-3neutral.bmp		1.2734	Subsequent_Hit
74.4698	2.5	stimuli/Faces/TSFHfemale64neutral.bmp		0.8014	Subsequent_Miss
78.3890	2.5	stimuli/Faces/EMImale23-6neutral.bmp		1.3134	Subsequent_Miss
82.1271	2.5	stimuli/Faces/EMBfemale33neutral.bmp		0.9790	Subsequent_Hit
85.4799	2.5	stimuli/Faces/TSFWfemale52-2neutral.bmp		0.9855	Subsequent_Miss
89.0990	2.5	stimuli/Faces/JWfemale78-3neutral.bmp	NaN	NaN	Subsequent_Hit
93.0661	2.5	stimuli/Faces/JWfemale39neutral.bmp		1.4281	Subsequent_Hit
96.2854	2.5	stimuli/Faces/EMBfemale26neutral.bmp		1.1189	Subsequent_Hit
100.1398	2.5	stimuli/Faces/TSFWmale88neutral.bmp		1.5677	Subsequent_NoResp
103.5405	2.5	stimuli/Faces/TMBfemale30neutral.bmp		1.2990	Subsequent_Hit
107.4622	2.5	stimuli/Faces/JWfemale71-5neutral.bmp		1.4453	Subsequent_Hit
110.7625	2.5	stimuli/Faces/EMImale25-2neutral.bmp		1.7039	Subsequent_Hit
114.0145	2.5	stimuli/Faces/JWmale89neutral.bmp		0.9780	Subsequent_Hit
117.3028	2.5	stimuli/Faces/EMBfemale22-2neutral.bmp		1.4315	Subsequent_Hit
120.8861	2.5	stimuli/Faces/TSFBfemale67neutral.bmp		1.0952	Subsequent_Hit
124.2383	2.5	stimuli/Faces/EMBmale55neutral.bmp		1.3800	Subsequent_Miss
127.8083	2.5	stimuli/Faces/TMWfemale40neutral.bmp		1.3132	Subsequent_Miss
130.9766	2.5	stimuli/Faces/TSFBfemale74-2neutral.bmp		1.1118	Subsequent_Miss
134.2131	2.5	stimuli/Faces/EMWfemale22neutral.bmp		0.7851	Subsequent_Hit
137.6314	2.5	stimuli/Faces/EMHmale22neutral.bmp		0.8388	Subsequent_Miss
141.4857	2.5	stimuli/Faces/EMWmale19neutral.bmp		1.0226	Subsequent_Miss
145.5065	2.5	stimuli/Faces/JWmale81-2neutral.bmp		1.0847	Subsequent_Hit
148.7230	2.5	stimuli/Faces/TMWfemale43neutral.bmp		1.6614	Subsequent_Hit
151.9915	2.5	stimuli/Faces/TMBmale18neutral.bmp		1.2109	Subsequent_Hit
155.2954	2.5	stimuli/Faces/JWfemale48neutral.bmp		1.6017	Subsequent_Hit
158.4968	2.5	stimuli/Faces/JWfemale63-3neutral.bmp		1.5885	Subsequent_Miss
162.2672	2.5	stimuli/Faces/TSFAmale68neutral.bmp		1.1151	Subsequent_Miss
166.0353	2.5	stimuli/Faces/EMIfemale25-2neutral.bmp		1.1880	Subsequent_Hit
169.8385	2.5	stimuli/Faces/JWfemale70-4neutral.bmp		0.8188	Subsequent_Hit
172.9068	2.5	stimuli/Faces/JBmale68neutral.bmp		1.3286	Subsequent_Miss
176.6265	2.5	stimuli/Faces/TSFBmale50neutral.bmp		1.8139	Subsequent_Hit
180.4625	2.5	stimuli/Faces/TSFHmale65neutral.bmp		1.7439	Subsequent_Miss
183.4811	2.5	stimuli/Faces/JWfemale65-6neutral.bmp	NaN	NaN	Subsequent_Miss
187.0003	2.5	stimuli/Faces/JWfemale42neutral.bmp		1.1899	Subsequent_Hit
190.3362	2.5	stimuli/Faces/TMBmale39neutral.bmp		1.5710	Subsequent_Miss
193.4384	2.5	stimuli/Faces/TMBfemale33-2neutral.bmp		1.4188	Subsequent_Hit
196.8245	2.5	stimuli/Faces/TMBfemale51neutral.bmp		0.8947	Subsequent_Hit
200.6772	2.5	stimuli/Faces/TMBmale21-3neutral.bmp		1.4470	Subsequent_Hit
204.6142	2.5	stimuli/Faces/EMWfemale30neutral.bmp		1.0003	Subsequent_Miss
207.6997	2.5	stimuli/Faces/JWmale64neutral.bmp		1.7087	Subsequent_Miss
211.1002	2.5	stimuli/Faces/EMBfemale20-2neutral.bmp		1.1002	Subsequent_Hit
214.3040	2.5	stimuli/Faces/JWmale66neutral.bmp		1.5145	Subsequent_Hit
218.1061	2.5	stimuli/Faces/EMBfemale25neutral.bmp	NaN	NaN	Subsequent_Miss
221.6751	2.5	stimuli/Faces/TMWmale33neutral.bmp		0.6731	Subsequent_Miss
225.2956	2.5	stimuli/Faces/JWfemale76-4neutral.bmp		1.1655	Subsequent_Hit
229.0137	2.5	stimuli/Faces/TMWmale37-2neutral.bmp		1.0355	Subsequent_Hit
232.5165	2.5	stimuli/Faces/EMBfemale49neutral.bmp		0.8538	Subsequent_Miss
236.3872	2.5	stimuli/Faces/TMWmale71neutral.bmp		0.9990	Subsequent_Hit
240.1234	2.5	stimuli/Faces/EMWfemale25neutral.bmp		0.9028	Subsequent_Miss
243.5578	2.5	stimuli/Faces/TMBmale30neutral.bmp		1.2155	Subsequent_Miss
246.5934	2.5	stimuli/Faces/JWmale79neutral.bmp		1.2037	Subsequent_Hit
250.3805	2.5	stimuli/Faces/JWfemale60neutral.bmp		1.1218	Subsequent_Miss
254.3318	2.5	stimuli/Faces/EMWfemale21-3neutral.bmp		1.3174	Subsequent_Hit
257.7178	2.5	stimuli/Faces/JWfemale77-2neutral.bmp		1.0663	Subsequent_Hit
261.4712	2.5	stimuli/Faces/EMImale25neutral.bmp		1.8169	Subsequent_Hit
264.7397	2.5	stimuli/Faces/TSFWmale57neutral.bmp		1.0456	Subsequent_Hit
268.6927	2.5	stimuli/Faces/EMIfemale26neutral.bmp		1.3215	Subsequent_Miss
272.6953	2.5	stimuli/Faces/EMImale21-2neutral.bmp		1.1083	Subsequent_Hit
276.2144	2.5	stimuli/Faces/TSFWmale87neutral.bmp		0.9809	Subsequent_Hit
279.5834	2.5	stimuli/Faces/TMBmale49neutral.bmp		0.8667	Subsequent_Hit
283.2027	2.5	stimuli/Faces/JWfemale70-2neutral.bmp		0.9355	Subsequent_Miss
286.3053	2.5	stimuli/Faces/JWfemale66neutral.bmp		0.9960	Subsequent_Hit
289.8077	2.5	stimuli/Faces/TMWmale43neutral.bmp		1.0157	Subsequent_Miss
293.2615	2.5	stimuli/Faces/EMIfemale19neutral.bmp		1.1698	Subsequent_Hit
296.7955	2.5	stimuli/Faces/EMBfemale29neutral.bmp	NaN	NaN	Subsequent_Miss
300.4991	2.5	stimuli/Faces/TSFWmale63neutral.bmp		2.1510	Subsequent_Miss
304.2013	2.5	stimuli/Faces/TMHmale18neutral.bmp		1.0141	Subsequent_Hit
307.7536	2.5	stimuli/Faces/EMWmale40neutral.bmp		1.7398	Subsequent_Miss
311.1725	2.5	stimuli/Faces/JWmale80neutral.bmp		1.3375	Subsequent_Miss
314.2252	2.5	stimuli/Faces/TSFWmale68-2neutral.bmp		1.2612	Subsequent_Hit
317.3954	2.5	stimuli/Faces/EMBfemale22-4neutral.bmp		1.0099	Subsequent_Hit
320.8629	2.5	stimuli/Faces/TSFBfemale65neutral.bmp		0.9604	Subsequent_Hit
324.5158	2.5	stimuli/Faces/TMBmale21neutral.bmp		0.8254	Subsequent_Hit
328.1183	2.5	stimuli/Faces/TMWmale79neutral.bmp		1.0249	Subsequent_Hit
332.0879	2.5	stimuli/Faces/EMWmale20neutral.bmp	NaN	NaN	Subsequent_Miss
335.2236	2.5	stimuli/Faces/TMWfemale37neutral.bmp		1.3655	Subsequent_Hit
338.7102	2.5	stimuli/Faces/TMWmale20-4neutral.bmp		1.1180	Subsequent_Hit
342.0281	2.5	stimuli/Faces/TSFWmale69neutral.bmp		1.5255	Subsequent_Hit
345.6810	2.5	stimuli/Faces/JWfemale37neutral.bmp		1.0492	Subsequent_Miss
349.5851	2.5	stimuli/Faces/EMBfemale21-3neutral.bmp		0.8550	Subsequent_Hit
