onset	duration	face	response	response_time	trial_type
0.7005	2.5	stimuli/Faces/JWmale38neutral.bmp		1.4187	Hit
3.7361	2.5	stimuli/Faces/WBmale31neutral.bmp		0.6059	Hit
7.4570	2.5	stimuli/Faces/EMWmale21-3neutral.bmp		0.9012	FA
10.9073	2.5	stimuli/Faces/TMWfemale36neutral.bmp		0.8737	Hit
14.0100	2.5	stimuli/Faces/JBmale68neutral.bmp		0.6933	Hit
17.8632	2.5	stimuli/Faces/TMBmale24neutral.bmp		0.6480	FA
21.7005	2.5	stimuli/Faces/EMIfemale26neutral.bmp		1.0885	CR
25.5851	2.5	stimuli/Faces/TMWmale22-3neutral.bmp		0.9471	CR
29.3898	2.5	stimuli/Faces/JWfemale66neutral.bmp		0.8435	CR
33.3087	2.5	stimuli/Faces/TMWmale71neutral.bmp		1.9114	CR
37.1264	2.5	stimuli/Faces/JWmale83-2neutral.bmp		1.7778	CR
40.4628	2.5	stimuli/Faces/TMBmale21neutral.bmp		0.6771	Hit
43.9000	2.5	stimuli/Faces/JWfemale73-2neutral.bmp		0.7362	Hit
47.5842	2.5	stimuli/Faces/TMBfemale41neutral.bmp		1.5128	FA
51.5370	2.5	stimuli/Faces/TMWmale41neutral.bmp		0.9131	FA
54.9394	2.5	stimuli/Faces/EMWfemale22neutral.bmp		0.6818	Hit
58.1925	2.5	stimuli/Faces/JWfemale77-2neutral.bmp		0.6618	Hit
61.4952	2.5	stimuli/Faces/EMBmale55neutral.bmp		1.1579	Hit
65.4642	2.5	stimuli/Faces/TSFWmale37neutral.bmp		1.2899	CR
68.6329	2.5	stimuli/Faces/TSFBfemale65-2neutral.bmp		0.6344	Hit
72.3852	2.5	stimuli/Faces/Wmale_50.bmp	NaN	NaN	NoResp
75.4548	2.5	stimuli/Faces/EMBfemale21neutral.bmp		1.2884	Hit
78.9735	2.5	stimuli/Faces/JWfemale71-2neutral.bmp		0.6945	FA
82.9442	2.5	stimuli/Faces/TSFWmale74neutral.bmp		1.1717	CR
86.2459	2.5	stimuli/Faces/TSFBfemale54neutral.bmp		0.8951	Hit
89.8311	2.5	stimuli/Faces/TSFWmale71neutral.bmp		1.4380	CR
93.1835	2.5	stimuli/Faces/TSFWmale54neutral.bmp		1.4268	Hit
96.9196	2.5	stimuli/Faces/EMBfemale22-4neutral.bmp		1.3316	CR
100.6891	2.5	stimuli/Faces/TMWfemale31neutral.bmp		1.3578	CR
103.7915	2.5	stimuli/Faces/JWmale69-2neutral.bmp		1.4658	Miss
106.9267	2.5	stimuli/Faces/TMWmale37-2neutral.bmp		1.2572	Hit
110.6303	2.5	stimuli/Faces/JWfemale69-2neutral.bmp		1.2731	CR
113.8818	2.5	stimuli/Faces/JWfemale44neutral.bmp	NaN	NaN	NoResp
117.3846	2.5	stimuli/Faces/TMBmale18neutral.bmp		0.7024	Hit
121.0528	2.5	stimuli/Faces/EMBfemale25neutral.bmp		1.0022	CR
124.8729	2.5	stimuli/Faces/JWfemale74neutral.bmp		1.0533	CR
127.9747	2.5	stimuli/Faces/EMImale25neutral.bmp		1.5024	Hit
131.3110	2.5	stimuli/Faces/JWfemale60neutral.bmp		0.8779	Hit
135.2638	2.5	stimuli/Faces/EMBfemale26neutral.bmp		0.9730	CR
138.7494	2.5	stimuli/Faces/JWfemale63-3neutral.bmp		0.8027	Hit
142.6201	2.5	stimuli/Faces/EMBfemale20-2neutral.bmp		0.9253	CR
146.6399	2.5	stimuli/Faces/JWfemale78-3neutral.bmp		1.4343	CR
149.6916	2.5	stimuli/Faces/EMImale25-2neutral.bmp		0.6855	Hit
153.5440	2.5	stimuli/Faces/JWfemale37neutral.bmp		0.8350	FA
157.4466	2.5	stimuli/Faces/TSFBfemale74-2neutral.bmp		1.5077	FA
161.0842	2.5	stimuli/Faces/TMWmale34-3neutral.bmp		1.0509	FA
164.6690	2.5	stimuli/Faces/JWfemale64-3neutral.bmp		0.8499	CR
168.6558	2.5	stimuli/Faces/JWfemale72-2neutral.bmp		0.8682	CR
172.1068	2.5	stimuli/Faces/Wmale_55-2.bmp		1.8281	Miss
175.1943	2.5	stimuli/Faces/TMWmale25-2neutral.bmp		1.5516	Hit
178.6948	2.5	stimuli/Faces/TMBmale39neutral.bmp		1.7281	Miss
182.3644	2.5	stimuli/Faces/JWfemale77neutral.bmp		1.0205	CR
185.7669	2.5	stimuli/Faces/TMBmale44neutral.bmp		0.7190	Hit
189.3192	2.5	stimuli/Faces/EMWfemale20-2neutral.bmp		1.5585	CR
193.2553	2.5	stimuli/Faces/TMBmale28neutral.bmp		1.2078	CR
197.2416	2.5	stimuli/Faces/EMImale24-2neutral.bmp		2.1165	CR
200.6107	2.5	stimuli/Faces/EMWmale33neutral.bmp		0.7662	Hit
204.0315	2.5	stimuli/Faces/EMBfemale22-3neutral.bmp		0.9264	Hit
207.3820	2.5	stimuli/Faces/JWfemale50neutral.bmp		1.6766	Miss
210.8016	2.5	stimuli/Faces/EMBfemale22-2neutral.bmp		2.0403	Hit
214.3372	2.5	stimuli/Faces/TMBfemale30neutral.bmp		0.8247	CR
217.6576	2.5	stimuli/Faces/EMBfemale33neutral.bmp		2.0448	Miss
221.1251	2.5	stimuli/Faces/TMWfemale35neutral.bmp		0.8969	Miss
224.3449	2.5	stimuli/Faces/TMWmale32neutral.bmp		1.5652	Hit
228.2479	2.5	stimuli/Faces/JWfemale74-2neutral.bmp		1.1049	CR
231.4659	2.5	stimuli/Faces/JWfemale76-3neutral.bmp		1.5588	Hit
234.6513	2.5	stimuli/Faces/TMBmale30neutral.bmp		0.7686	Hit
238.4224	2.5	stimuli/Faces/JWfemale79neutral.bmp		1.1636	CR
242.0405	2.5	stimuli/Faces/JWfemale65-2neutral.bmp		1.8015	CR
245.5596	2.5	stimuli/Faces/TSFWmale77neutral.bmp		1.2331	Miss
248.7619	2.5	stimuli/Faces/Wmale_65.bmp		1.8070	Miss
252.4811	2.5	stimuli/Faces/TSFWmale88neutral.bmp		0.9732	FA
255.7512	2.5	stimuli/Faces/Wmale_55.bmp		1.0315	Hit
259.1357	2.5	stimuli/Faces/TSFWfemale52-2neutral.bmp		1.5690	Miss
262.2724	2.5	stimuli/Faces/JWfemale77-4neutral.bmp		0.8614	Miss
266.0575	2.5	stimuli/Faces/JWfemale68-2neutral.bmp		1.8241	CR
269.2432	2.5	stimuli/Faces/EMWmale19neutral.bmp		0.9465	Hit
272.9790	2.5	stimuli/Faces/TMBmale21-3neutral.bmp		1.1922	FA
276.2481	2.5	stimuli/Faces/TMBfemale40neutral.bmp		1.8116	Hit
279.3171	2.5	stimuli/Faces/EMBfemale29neutral.bmp		0.6307	Hit
282.6366	2.5	stimuli/Faces/JWfemale80-4neutral.bmp		1.7273	Hit
286.2401	2.5	stimuli/Faces/EMWfemale22-3neutral.bmp		2.0826	CR
289.3254	2.5	stimuli/Faces/TMBfemale33-2neutral.bmp		1.0475	Hit
292.9770	2.5	stimuli/Faces/EMWmale32neutral.bmp		0.9911	CR
296.5796	2.5	stimuli/Faces/TSFBmale77neutral.bmp		1.1263	CR
299.7994	2.5	stimuli/Faces/TMWmale45neutral.bmp		0.7723	Hit
303.4175	2.5	stimuli/Faces/JWmale89neutral.bmp		1.6052	FA
306.4710	2.5	stimuli/Faces/EMBfemale21-2neutral.bmp		0.7987	Hit
310.3059	2.5	stimuli/Faces/TMWmale33neutral.bmp		1.2096	CR
314.1587	2.5	stimuli/Faces/EMWfemale21-5neutral.bmp		0.9057	CR
318.1614	2.5	stimuli/Faces/JWfemale82-2neutral.bmp		1.3275	CR
321.6304	2.5	stimuli/Faces/TMBfemale57neutral.bmp		1.1114	Miss
325.2833	2.5	stimuli/Faces/JWmale73neutral.bmp		0.7514	FA
328.2862	2.5	stimuli/Faces/EMImale23-6neutral.bmp		0.7875	Hit
331.8381	2.5	stimuli/Faces/JWfemale86-2neutral.bmp		1.3377	FA
335.7764	2.5	stimuli/Faces/TSFBfemale63neutral.bmp		0.7606	CR
339.3437	2.5	stimuli/Faces/EMWmale40neutral.bmp		1.7868	CR
342.4951	2.5	stimuli/Faces/JWfemale65-6neutral.bmp		1.1827	Hit
345.7831	2.5	stimuli/Faces/TSFWmale67-2neutral.bmp		1.7807	Hit
349.4852	2.5	stimuli/Faces/EMBfemale22neutral.bmp		1.7854	CR
