onset	duration	face	response	response_time	trial_type
1.1008	2.5	stimuli/Faces/EMWmale40neutral.bmp		1.8528	Subsequent_Miss
4.2045	2.5	stimuli/Faces/JWfemale80-4neutral.bmp		1.2879	Subsequent_Hit
8.1727	2.5	stimuli/Faces/EMIfemale25-2neutral.bmp		1.3509	Subsequent_Hit
11.3248	2.5	stimuli/Faces/EMBmale20neutral.bmp	NaN	NaN	Subsequent_NoResp
14.9446	2.5	stimuli/Faces/EMBfemale22-2neutral.bmp		0.9242	Subsequent_Hit
18.5155	2.5	stimuli/Faces/TMWmale33neutral.bmp		0.6901	Subsequent_Hit
21.6654	2.5	stimuli/Faces/TSFWmale70neutral.bmp		1.1051	Subsequent_Hit
25.4013	2.5	stimuli/Faces/TMWfemale37neutral.bmp		0.6333	Subsequent_NoResp
28.9547	2.5	stimuli/Faces/EMImale24-2neutral.bmp	NaN	NaN	Subsequent_NoResp
32.9571	2.5	stimuli/Faces/TMWmale34neutral.bmp	NaN	NaN	Subsequent_Miss
36.5442	2.5	stimuli/Faces/JWmale88neutral.bmp		1.2834	Subsequent_Hit
39.8455	2.5	stimuli/Faces/JWmale73neutral.bmp		0.9292	Subsequent_Hit
43.4646	2.5	stimuli/Faces/TMBfemale30neutral.bmp		1.1181	Subsequent_Hit
46.9837	2.5	stimuli/Faces/EMImale23-4neutral.bmp		0.8452	Subsequent_Hit
50.7529	2.5	stimuli/Faces/TSFBfemale74-2neutral.bmp		0.9829	Subsequent_Hit
54.4079	2.5	stimuli/Faces/JWfemale67-4neutral.bmp		1.0045	Subsequent_Hit
57.9264	2.5	stimuli/Faces/JWfemale79-4neutral.bmp		0.9291	Subsequent_Hit
61.3439	2.5	stimuli/Faces/EMWmale19neutral.bmp	NaN	NaN	Subsequent_Hit
64.6301	2.5	stimuli/Faces/EMWmale52neutral.bmp		1.8516	Subsequent_Hit
68.3344	2.5	stimuli/Faces/EMBfemale21-4neutral.bmp		1.3670	Subsequent_NoResp
71.3514	2.5	stimuli/Faces/EMImale25neutral.bmp	NaN	NaN	Subsequent_Hit
74.6205	2.5	stimuli/Faces/TSFBfemale61neutral.bmp		1.4312	Subsequent_Hit
78.1729	2.5	stimuli/Faces/TMBfemale57neutral.bmp		0.7477	Subsequent_NoResp
81.4777	2.5	stimuli/Faces/TMWfemale49-2neutral.bmp		1.0587	Subsequent_NoResp
85.0781	2.5	stimuli/Faces/JWfemale65-2neutral.bmp		1.1024	Subsequent_Miss
88.1480	2.5	stimuli/Faces/JWmale67neutral.bmp		1.4154	Subsequent_Hit
91.5666	2.5	stimuli/Faces/TMBfemale40neutral.bmp	NaN	NaN	Subsequent_NoResp
95.3351	2.5	stimuli/Faces/EMBfemale49neutral.bmp		1.7475	Subsequent_NoResp
98.5044	2.5	stimuli/Faces/JWfemale68-2neutral.bmp		0.7760	Subsequent_Hit
101.8420	2.5	stimuli/Faces/TMWmale41neutral.bmp		0.6665	Subsequent_Hit
104.9113	2.5	stimuli/Faces/JWmale89neutral.bmp		0.5454	Subsequent_NoResp
108.7623	2.5	stimuli/Faces/JWfemale37neutral.bmp	NaN	NaN	Subsequent_Miss
111.9308	2.5	stimuli/Faces/JWfemale83neutral.bmp	NaN	NaN	Subsequent_Hit
115.3830	2.5	stimuli/Faces/TSFBfemale70-2neutral.bmp	NaN	NaN	Subsequent_Hit
118.5852	2.5	stimuli/Faces/Wmale_55-2.bmp	NaN	NaN	Subsequent_NoResp
122.4213	2.5	stimuli/Faces/JWfemale81-3neutral.bmp		1.2660	Subsequent_Hit
125.5234	2.5	stimuli/Faces/JWfemale69-2neutral.bmp	NaN	NaN	Subsequent_Hit
129.4763	2.5	stimuli/Faces/TMBmale18neutral.bmp	NaN	NaN	Subsequent_Miss
132.8788	2.5	stimuli/Faces/TSFWmale87neutral.bmp	NaN	NaN	Subsequent_Miss
136.5314	2.5	stimuli/Faces/JWfemale63-3neutral.bmp		1.6612	Subsequent_Hit
140.4854	2.5	stimuli/Faces/JWfemale77-2neutral.bmp	NaN	NaN	Subsequent_NoResp
144.2718	2.5	stimuli/Faces/EMWmale33neutral.bmp		0.9529	Subsequent_Hit
147.3223	2.5	stimuli/Faces/TMBmale24neutral.bmp	NaN	NaN	Subsequent_Miss
151.0591	2.5	stimuli/Faces/TSFWfemale34neutral.bmp	NaN	NaN	Subsequent_Miss
154.8777	2.5	stimuli/Faces/TSFBfemale67neutral.bmp		1.0058	Subsequent_NoResp
158.7811	2.5	stimuli/Faces/WBfemale47neutral.bmp		1.1296	Subsequent_Hit
162.1012	2.5	stimuli/Faces/TMBmale41neutral.bmp		0.8523	Subsequent_Miss
165.1519	2.5	stimuli/Faces/EMWmale32neutral.bmp		1.1426	Subsequent_Miss
168.3377	2.5	stimuli/Faces/TMBfemale51neutral.bmp		0.9911	Subsequent_NoResp
171.5566	2.5	stimuli/Faces/JWmale83neutral.bmp		0.9610	Subsequent_Hit
175.2762	2.5	stimuli/Faces/EMWfemale22neutral.bmp	NaN	NaN	Subsequent_Hit
179.1621	2.5	stimuli/Faces/EMImale23-2neutral.bmp	NaN	NaN	Subsequent_Miss
182.4167	2.5	stimuli/Faces/TMWmale43neutral.bmp		0.7897	Subsequent_Hit
186.2840	2.5	stimuli/Faces/TSFBfemale65-3neutral.bmp		0.7504	Subsequent_Miss
189.5025	2.5	stimuli/Faces/TSFHmale65neutral.bmp	NaN	NaN	Subsequent_Hit
193.3554	2.5	stimuli/Faces/TMBmale39neutral.bmp	NaN	NaN	Subsequent_Miss
196.7100	2.5	stimuli/Faces/JWfemale74neutral.bmp		1.1126	Subsequent_Miss
200.0623	2.5	stimuli/Faces/JWfemale76-4neutral.bmp		0.7912	Subsequent_NoResp
203.7796	2.5	stimuli/Faces/EMBfemale22-4neutral.bmp	NaN	NaN	Subsequent_Hit
207.2152	2.5	stimuli/Faces/TMWmale34-3neutral.bmp		0.8123	Subsequent_NoResp
210.7193	2.5	stimuli/Faces/JWfemale71-2neutral.bmp		1.0093	Subsequent_NoResp
214.4374	2.5	stimuli/Faces/TSFBfemale50neutral.bmp		1.0891	Subsequent_NoResp
217.6222	2.5	stimuli/Faces/TMBfemale33neutral.bmp		1.2564	Subsequent_Hit
221.6282	2.5	stimuli/Faces/EMWmale21-3neutral.bmp	NaN	NaN	Subsequent_Miss
224.7450	2.5	stimuli/Faces/JWfemale66neutral.bmp		1.3214	Subsequent_Hit
227.8818	2.5	stimuli/Faces/EMBfemale29neutral.bmp		1.1267	Subsequent_Miss
231.3502	2.5	stimuli/Faces/JWfemale64-3neutral.bmp	NaN	NaN	Subsequent_NoResp
235.2191	2.5	stimuli/Faces/TSFWmale88neutral.bmp		1.3394	Subsequent_Hit
238.5881	2.5	stimuli/Faces/JWmale66neutral.bmp		1.0885	Subsequent_Hit
241.9571	2.5	stimuli/Faces/JWfemale72-2neutral.bmp		1.8415	Subsequent_Miss
245.4446	2.5	stimuli/Faces/TSFWmale67-2neutral.bmp		0.7417	Subsequent_Miss
248.5282	2.5	stimuli/Faces/TMWmale37neutral.bmp	NaN	NaN	Subsequent_Hit
252.5313	2.5	stimuli/Faces/TSFWfemale52-2neutral.bmp		0.9570	Subsequent_Hit
255.9186	2.5	stimuli/Faces/TMBmale49neutral.bmp		0.7999	Subsequent_NoResp
259.4724	2.5	stimuli/Faces/TSFAmale68neutral.bmp		0.7021	Subsequent_NoResp
263.1556	2.5	stimuli/Faces/EMWfemale22-3neutral.bmp	NaN	NaN	Subsequent_NoResp
266.9593	2.5	stimuli/Faces/TSFWmale66-2neutral.bmp		0.7721	Subsequent_Miss
270.6115	2.5	stimuli/Faces/TMWmale37-2neutral.bmp	NaN	NaN	Subsequent_Miss
273.9968	2.5	stimuli/Faces/EMBmale55neutral.bmp		1.1126	Subsequent_Miss
277.4337	2.5	stimuli/Faces/TSFWmale61neutral.bmp		0.9226	Subsequent_Miss
281.4362	2.5	stimuli/Faces/JWmale86neutral.bmp	NaN	NaN	Subsequent_NoResp
284.4713	2.5	stimuli/Faces/EMBmale26neutral.bmp	NaN	NaN	Subsequent_NoResp
288.0069	2.5	stimuli/Faces/EMBfemale21neutral.bmp	NaN	NaN	Subsequent_Hit
291.3280	2.5	stimuli/Faces/JWmale83-2neutral.bmp		0.7365	Subsequent_Hit
295.2619	2.5	stimuli/Faces/TMWmale32neutral.bmp		1.1506	Subsequent_Hit
299.1823	2.5	stimuli/Faces/JWfemale73-2neutral.bmp		0.8364	Subsequent_Hit
302.4349	2.5	stimuli/Faces/TSFWmale71-4neutral.bmp		1.4946	Subsequent_Hit
306.4034	2.5	stimuli/Faces/TSFBfemale63neutral.bmp		0.5870	Subsequent_NoResp
310.2242	2.5	stimuli/Faces/JWmale70neutral.bmp		0.7572	Subsequent_NoResp
313.4580	2.5	stimuli/Faces/TMBmale44neutral.bmp		0.7154	Subsequent_Hit
317.0961	2.5	stimuli/Faces/TMWfemale40neutral.bmp		0.9322	Subsequent_NoResp
320.5652	2.5	stimuli/Faces/TSFWmale54neutral.bmp		0.9102	Subsequent_Hit
323.8339	2.5	stimuli/Faces/TMBmale28neutral.bmp	NaN	NaN	Subsequent_Miss
327.7519	2.5	stimuli/Faces/TMWmale71neutral.bmp		0.9364	Subsequent_Miss
330.8705	2.5	stimuli/Faces/EMIfemale19neutral.bmp	NaN	NaN	Subsequent_Hit
334.5426	2.5	stimuli/Faces/EMWfemale18-2neutral.bmp		1.0327	Subsequent_Miss
338.2950	2.5	stimuli/Faces/TMWmale34-4neutral.bmp		1.3141	Subsequent_Miss
341.7953	2.5	stimuli/Faces/JWfemale82-2neutral.bmp	NaN	NaN	Subsequent_Hit
345.6980	2.5	stimuli/Faces/JWfemale48neutral.bmp		1.5833	Subsequent_Miss
349.4842	2.5	stimuli/Faces/EMBfemale22neutral.bmp		0.6862	Subsequent_Miss
