onset	duration	face	response	response_time	trial_type
1.2009	2.5	stimuli/Faces/EMWmale52neutral.bmp		1.5416	Miss
4.5034	2.5	stimuli/Faces/EMImale23-2neutral.bmp		1.0304	CR
8.1560	2.5	stimuli/Faces/JWfemale86-2neutral.bmp		1.2112	CR
11.3082	2.5	stimuli/Faces/EMBfemale22-3neutral.bmp		1.2484	CR
14.8108	2.5	stimuli/Faces/TMBfemale51neutral.bmp		1.2658	Hit
18.6635	2.5	stimuli/Faces/EMBfemale22neutral.bmp		0.8030	CR
22.2996	2.5	stimuli/Faces/JWfemale77neutral.bmp		0.9559	CR
25.9020	2.5	stimuli/Faces/EMImale25neutral.bmp		0.8089	Hit
28.9881	2.5	stimuli/Faces/TSFWmale70neutral.bmp		0.6657	Hit
32.0399	2.5	stimuli/Faces/JWfemale69-2neutral.bmp		0.7682	Hit
35.7090	2.5	stimuli/Faces/TMBmale28neutral.bmp		0.7552	Hit
39.6119	2.5	stimuli/Faces/TSFBfemale74-2neutral.bmp		0.6986	FA
42.7641	2.5	stimuli/Faces/JWfemale42neutral.bmp		1.0084	FA
46.0500	2.5	stimuli/Faces/TSFWmale71neutral.bmp		1.2082	FA
49.3022	2.5	stimuli/Faces/TSFWmale77neutral.bmp		1.3270	CR
53.3052	2.5	stimuli/Faces/TSFAmale68neutral.bmp		1.3995	Miss
56.5079	2.5	stimuli/Faces/TSFBfemale61neutral.bmp		0.7570	Hit
60.2267	2.5	stimuli/Faces/EMIfemale25-2neutral.bmp		0.6395	Hit
63.9794	2.5	stimuli/Faces/TMWfemale35neutral.bmp		1.6420	Hit
67.0482	2.5	stimuli/Faces/TSFWmale46neutral.bmp		1.1610	CR
70.5007	2.5	stimuli/Faces/TMBmale24neutral.bmp		0.7913	Hit
73.5872	2.5	stimuli/Faces/TMWmale32neutral.bmp		0.9268	CR
76.8553	2.5	stimuli/Faces/Wmale_65.bmp		1.0616	CR
80.3242	2.5	stimuli/Faces/JWmale76neutral.bmp		1.0090	CR
83.3432	2.5	stimuli/Faces/TMWfemale40neutral.bmp		1.6276	Miss
87.1792	2.5	stimuli/Faces/JWfemale60neutral.bmp		0.8313	Hit
90.2485	2.5	stimuli/Faces/JWmale81-2neutral.bmp		1.4268	Miss
93.8182	2.5	stimuli/Faces/JWfemale39neutral.bmp		0.8025	Hit
96.9197	2.5	stimuli/Faces/JWfemale63-3neutral.bmp		0.6877	CR
100.8389	2.5	stimuli/Faces/JWfemale74-2neutral.bmp		1.0396	CR
104.2254	2.5	stimuli/Faces/TSFWmale42neutral.bmp		0.9247	CR
107.2768	2.5	stimuli/Faces/JWfemale78-6neutral.bmp		0.7765	Hit
111.0466	2.5	stimuli/Faces/TMBfemale30neutral.bmp		0.8729	CR
114.4489	2.5	stimuli/Faces/JWfemale77-4neutral.bmp		1.1136	CR
118.3184	2.5	stimuli/Faces/TSFWmale74neutral.bmp		1.2557	Miss
122.3047	2.5	stimuli/Faces/TMBmale21neutral.bmp		1.6084	Miss
126.0573	2.5	stimuli/Faces/TSFWmale67-2neutral.bmp		1.0864	CR
129.4763	2.5	stimuli/Faces/EMImale23-4neutral.bmp		0.9394	CR
132.9956	2.5	stimuli/Faces/EMBfemale25neutral.bmp		1.1716	Hit
136.4980	2.5	stimuli/Faces/JWfemale67-4neutral.bmp		0.6035	Hit
140.3680	2.5	stimuli/Faces/EMWmale21-3neutral.bmp		0.8243	CR
143.9869	2.5	stimuli/Faces/TMWmale34-3neutral.bmp		1.4278	Hit
147.5220	2.5	stimuli/Faces/TMBfemale41neutral.bmp		0.7226	Hit
151.4422	2.5	stimuli/Faces/JWmale70neutral.bmp		1.1863	CR
154.8613	2.5	stimuli/Faces/Wmale_55-3.bmp		1.6438	CR
157.9801	2.5	stimuli/Faces/TMBfemale37neutral.bmp		1.4524	CR
161.9831	2.5	stimuli/Faces/EMIfemale19neutral.bmp		1.2316	Hit
165.5688	2.5	stimuli/Faces/JWmale64neutral.bmp		1.0862	CR
168.8382	2.5	stimuli/Faces/EMBfemale21-3neutral.bmp		1.0722	Miss
172.0569	2.5	stimuli/Faces/TMBfemale33-2neutral.bmp		0.9558	Hit
175.5261	2.5	stimuli/Faces/EMBfemale22-2neutral.bmp		0.8045	CR
179.4455	2.5	stimuli/Faces/EMImale25-2neutral.bmp		0.7922	CR
182.8481	2.5	stimuli/Faces/JWmale38neutral.bmp		1.3092	CR
186.6512	2.5	stimuli/Faces/EMWmale40neutral.bmp		1.0603	CR
190.3701	2.5	stimuli/Faces/JWmale80neutral.bmp		1.2454	Hit
193.7392	2.5	stimuli/Faces/TSFWmale79neutral.bmp		0.7944	CR
197.0916	2.5	stimuli/Faces/JWfemale72-2neutral.bmp		0.8600	Hit
200.4106	2.5	stimuli/Faces/TMWmale30neutral.bmp		0.9492	Hit
203.6296	2.5	stimuli/Faces/JWfemale79neutral.bmp		0.7930	Hit
207.1488	2.5	stimuli/Faces/JWfemale48neutral.bmp		0.7991	CR
210.9517	2.5	stimuli/Faces/JWfemale78-3neutral.bmp		1.5150	Hit
214.9210	2.5	stimuli/Faces/TSFBfemale78-2neutral.bmp		1.3847	Hit
218.7739	2.5	stimuli/Faces/TMBmale18neutral.bmp		0.8488	CR
222.7433	2.5	stimuli/Faces/TSFBfemale65-3neutral.bmp		0.9815	Miss
226.4459	2.5	stimuli/Faces/TMBmale41neutral.bmp		1.2623	Miss
229.8991	2.5	stimuli/Faces/TMWmale25-2neutral.bmp		1.3877	Hit
233.8513	2.5	stimuli/Faces/EMBfemale21-4neutral.bmp		1.1874	Hit
237.5199	2.5	stimuli/Faces/TMWmale41neutral.bmp		0.6861	CR
240.8561	2.5	stimuli/Faces/JWfemale78neutral.bmp		1.0662	Hit
244.1088	2.5	stimuli/Faces/EMBfemale21-2neutral.bmp		1.9979	CR
247.9955	2.5	stimuli/Faces/EMBmale55neutral.bmp		1.4719	CR
251.7306	2.5	stimuli/Faces/TSFHmale65neutral.bmp		0.9263	Hit
255.3335	2.5	stimuli/Faces/TMBfemale57neutral.bmp		1.0542	CR
258.5698	2.5	stimuli/Faces/TSFWmale79-3neutral.bmp		0.7703	CR
261.9383	2.5	stimuli/Faces/EMWfemale18-2neutral.bmp		1.2729	Miss
265.5905	2.5	stimuli/Faces/TSFBfemale65-2neutral.bmp		0.7665	CR
269.4929	2.5	stimuli/Faces/EMWmale19neutral.bmp		1.2886	Hit
273.4465	2.5	stimuli/Faces/Wmale_55.bmp		1.6238	Miss
276.9990	2.5	stimuli/Faces/JWfemale65-2neutral.bmp		0.8878	CR
280.1850	2.5	stimuli/Faces/TSFWfemale34neutral.bmp		1.1107	Hit
283.8039	2.5	stimuli/Faces/TSFWmale37neutral.bmp		0.6693	Hit
287.8234	2.5	stimuli/Faces/JWfemale81-3neutral.bmp		1.2010	CR
291.4920	2.5	stimuli/Faces/TMWfemale36neutral.bmp		0.6920	Hit
294.8456	2.5	stimuli/Faces/TSFWmale69neutral.bmp		1.0344	FA
297.8804	2.5	stimuli/Faces/TMWmale43neutral.bmp		0.8525	Hit
301.7001	2.5	stimuli/Faces/JWmale86neutral.bmp		0.7957	CR
305.5187	2.5	stimuli/Faces/JWfemale79-4neutral.bmp		1.1300	CR
309.2889	2.5	stimuli/Faces/JWfemale73-2neutral.bmp		1.0475	Hit
312.4078	2.5	stimuli/Faces/EMWfemale22neutral.bmp		2.3155	CR
315.8434	2.5	stimuli/Faces/TMWmale34neutral.bmp		1.1659	Hit
319.4128	2.5	stimuli/Faces/EMIfemale26neutral.bmp		1.1394	CR
322.5816	2.5	stimuli/Faces/TMBmale44neutral.bmp		0.9885	CR
325.9006	2.5	stimuli/Faces/TMHmale18neutral.bmp		1.1990	CR
329.1030	2.5	stimuli/Faces/TSFWmale63neutral.bmp		0.9634	Hit
332.2386	2.5	stimuli/Faces/TMWfemale43neutral.bmp		1.1607	CR
336.0246	2.5	stimuli/Faces/TMWfemale31neutral.bmp		0.9283	Hit
339.4931	2.5	stimuli/Faces/TSFHfemale64neutral.bmp		0.8294	CR
342.7961	2.5	stimuli/Faces/TMWmale37-2neutral.bmp		1.3339	Hit
346.3488	2.5	stimuli/Faces/TSFBfemale63-2neutral.bmp		1.0009	Miss
349.5169	2.5	stimuli/Faces/EMWmale19-3neutral.bmp		0.7201	CR
