onset	duration	face	response	response_time	trial_type
0.6521	2.5	stimuli/Faces/TSFBmale50neutral.bmp		2.1098	Hit
4.5704	2.5	stimuli/Faces/JWfemale48neutral.bmp		1.0316	FA
8.3059	2.5	stimuli/Faces/TMWfemale37neutral.bmp		1.0080	Hit
11.6079	2.5	stimuli/Faces/JBmale68neutral.bmp		0.9798	Hit
15.3949	2.5	stimuli/Faces/EMWmale33neutral.bmp		1.1945	FA
19.3972	2.5	stimuli/Faces/JWmale86neutral.bmp		0.8997	Hit
22.5162	2.5	stimuli/Faces/EMImale23-6neutral.bmp		NaN	NoResp
26.1187	2.5	stimuli/Faces/JWfemale65-2neutral.bmp		1.0367	Hit
29.7064	2.5	stimuli/Faces/JWmale88neutral.bmp		1.1814	Hit
33.0237	2.5	stimuli/Faces/TMBmale21neutral.bmp		0.9231	CR
36.5759	2.5	stimuli/Faces/EMImale24-2neutral.bmp		1.0709	Miss
40.0454	2.5	stimuli/Faces/EMBfemale20-2neutral.bmp		2.0620	FA
43.6661	2.5	stimuli/Faces/TMBfemale30neutral.bmp		0.8955	Hit
46.7675	2.5	stimuli/Faces/JWmale80neutral.bmp		1.3267	Hit
50.2688	2.5	stimuli/Faces/TSFWmale77neutral.bmp		1.0101	Hit
53.5051	2.5	stimuli/Faces/JWfemale39neutral.bmp		1.1586	Hit
56.6243	2.5	stimuli/Faces/JWfemale70-2neutral.bmp		1.2818	CR
59.9762	2.5	stimuli/Faces/EMWfemale25neutral.bmp		1.1986	FA
63.2299	2.5	stimuli/Faces/TMWfemale31neutral.bmp		1.1691	CR
66.7477	2.5	stimuli/Faces/JWfemale79-4neutral.bmp		1.5635	CR
70.3333	2.5	stimuli/Faces/EMWmale40neutral.bmp		1.6924	FA
74.0200	2.5	stimuli/Faces/EMWfemale22-3neutral.bmp		2.0032	CR
77.1219	2.5	stimuli/Faces/TSFBfemale62neutral.bmp		1.0043	Hit
80.1908	2.5	stimuli/Faces/JWmale76neutral.bmp		1.1895	Hit
83.2766	2.5	stimuli/Faces/TSFWmale71neutral.bmp		1.0458	Hit
86.3288	2.5	stimuli/Faces/TMWfemale35neutral.bmp		1.8353	CR
90.0313	2.5	stimuli/Faces/EMBfemale22-4neutral.bmp		1.3458	CR
93.0685	2.5	stimuli/Faces/JWfemale78neutral.bmp		1.7654	Hit
96.4188	2.5	stimuli/Faces/TMWmale34-2neutral.bmp		0.8947	CR
100.4055	2.5	stimuli/Faces/TSFWfemale52-2neutral.bmp		1.6933	Hit
103.8917	2.5	stimuli/Faces/EMImale21-2neutral.bmp		0.7351	CR
107.1453	2.5	stimuli/Faces/EMBfemale20neutral.bmp		1.3112	Miss
110.4635	2.5	stimuli/Faces/JWmale71neutral.bmp		1.7946	Hit
113.5149	2.5	stimuli/Faces/TSFBfemale63-2neutral.bmp		1.4082	Hit
116.8172	2.5	stimuli/Faces/EMIfemale25neutral.bmp		1.0113	Miss
120.5700	2.5	stimuli/Faces/TMWmale34-4neutral.bmp		1.2059	CR
124.2059	2.5	stimuli/Faces/TMWfemale40neutral.bmp		1.0304	CR
128.1920	2.5	stimuli/Faces/EMIfemale25-2neutral.bmp		0.7983	CR
132.0466	2.5	stimuli/Faces/TSFBfemale65-3neutral.bmp		1.1003	CR
135.7644	2.5	stimuli/Faces/TSFBfemale50neutral.bmp		1.3481	CR
138.8997	2.5	stimuli/Faces/EMBfemale22-3neutral.bmp		1.2964	CR
142.7532	2.5	stimuli/Faces/JWfemale37neutral.bmp		0.9426	CR
145.9042	2.5	stimuli/Faces/JWfemale42neutral.bmp		1.3449	Hit
149.8250	2.5	stimuli/Faces/TMWmale71neutral.bmp		1.1713	Hit
153.2435	2.5	stimuli/Faces/TSFWmale74neutral.bmp		1.3714	Hit
156.7980	2.5	stimuli/Faces/TMWmale33neutral.bmp		1.1934	Hit
160.6980	2.5	stimuli/Faces/WBfemale47neutral.bmp		0.9320	Miss
164.6199	2.5	stimuli/Faces/JWfemale73-2neutral.bmp		NaN	NoResp
167.8872	2.5	stimuli/Faces/TMBmale21-3neutral.bmp		1.0503	CR
171.7568	2.5	stimuli/Faces/TSFWmale88neutral.bmp		1.5424	Miss
175.0255	2.5	stimuli/Faces/JWfemale50neutral.bmp		0.8738	CR
179.0302	2.5	stimuli/Faces/TMWmale34neutral.bmp		1.8147	Miss
182.4144	2.5	stimuli/Faces/TMWfemale36neutral.bmp		0.9836	Miss
186.3673	2.5	stimuli/Faces/TMBmale18neutral.bmp		1.2297	CR
189.5366	2.5	stimuli/Faces/TSFBmale77neutral.bmp		NaN	NoResp
193.3723	2.5	stimuli/Faces/JWfemale81-3neutral.bmp		1.4768	CR
197.0421	2.5	stimuli/Faces/JWfemale67-4neutral.bmp		1.4626	Hit
200.8945	2.5	stimuli/Faces/TMBmale39neutral.bmp		0.9427	CR
204.5970	2.5	stimuli/Faces/EMBfemale21-4neutral.bmp		1.1137	Miss
208.0330	2.5	stimuli/Faces/EMImale24-4neutral.bmp		1.3160	CR
211.9698	2.5	stimuli/Faces/TMWmale32neutral.bmp		1.5406	CR
215.4731	2.5	stimuli/Faces/TSFWmale79neutral.bmp		1.2482	Hit
218.8573	2.5	stimuli/Faces/TSFWmale37neutral.bmp	NaN	0.9013	Miss
222.8101	2.5	stimuli/Faces/TSFBfemale63neutral.bmp		0.9113	Miss
226.6287	2.5	stimuli/Faces/TSFBfemale67neutral.bmp		NaN	NoResp
230.4324	2.5	stimuli/Faces/TSFWmale66-2neutral.bmp		1.1536	Hit
234.1686	2.5	stimuli/Faces/EMWfemale22neutral.bmp		1.3812	Miss
237.8877	2.5	stimuli/Faces/TSFWfemale34neutral.bmp		1.1150	CR
241.0914	2.5	stimuli/Faces/TSFWmale57neutral.bmp		1.0239	Hit
244.7423	2.5	stimuli/Faces/EMWfemale18-2neutral.bmp		1.6448	FA
248.2450	2.5	stimuli/Faces/TSFBfemale65neutral.bmp		1.5622	Miss
252.1309	2.5	stimuli/Faces/EMImale23-2neutral.bmp		1.4944	CR
255.5845	2.5	stimuli/Faces/EMWfemale21-3neutral.bmp		0.8972	CR
258.7692	2.5	stimuli/Faces/TMWmale20-4neutral.bmp		0.8985	CR
261.9047	2.5	stimuli/Faces/JWfemale77neutral.bmp		0.9926	CR
265.2747	2.5	stimuli/Faces/TMBfemale37neutral.bmp		0.9214	CR
268.9266	2.5	stimuli/Faces/TMWmale37-2neutral.bmp		1.0581	Hit
272.1288	2.5	stimuli/Faces/JWfemale78-6neutral.bmp		1.3508	CR
276.1488	2.5	stimuli/Faces/EMWmale21-3neutral.bmp		0.8650	CR
279.4508	2.5	stimuli/Faces/JWmale64neutral.bmp		0.9438	CR
282.8537	2.5	stimuli/Faces/JWfemale77-4neutral.bmp		0.9780	Miss
286.0563	2.5	stimuli/Faces/Wmale_50.bmp		1.1266	FA
289.4752	2.5	stimuli/Faces/EMBfemale26neutral.bmp		NaN	NoResp
293.0439	2.5	stimuli/Faces/TSFAmale68neutral.bmp		0.8783	CR
296.4965	2.5	stimuli/Faces/JWfemale74-2neutral.bmp		0.8951	CR
299.7155	2.5	stimuli/Faces/JWmale69-2neutral.bmp		1.0898	CR
303.3684	2.5	stimuli/Faces/JWfemale63-3neutral.bmp		1.8899	CR
307.1386	2.5	stimuli/Faces/TSFBfemale74-2neutral.bmp		1.7514	Hit
310.6063	2.5	stimuli/Faces/TMBmale30neutral.bmp		2.0446	CR
314.2255	2.5	stimuli/Faces/EMBfemale22-2neutral.bmp		1.4550	Miss
317.2956	2.5	stimuli/Faces/Wmale_55-3.bmp		1.2326	CR
321.2490	2.5	stimuli/Faces/JWfemale77-2neutral.bmp		0.7428	Miss
324.6666	2.5	stimuli/Faces/EMBfemale21-3neutral.bmp		1.7754	CR
328.1859	2.5	stimuli/Faces/EMBfemale21neutral.bmp		1.2092	FA
331.7395	2.5	stimuli/Faces/TMBfemale57neutral.bmp		1.3176	FA
335.0741	2.5	stimuli/Faces/JWfemale70-4neutral.bmp		1.2426	Miss
338.8943	2.5	stimuli/Faces/JWmale70neutral.bmp		2.0973	Hit
341.9121	2.5	stimuli/Faces/TSFWmale69neutral.bmp		1.3988	Miss
345.7317	2.5	stimuli/Faces/EMBfemale22neutral.bmp		1.5375	CR
349.4845	2.5	stimuli/Faces/EMBfemale49neutral.bmp		2.4039	Miss
