onset	duration	face	response	response_time	trial_type
0.7506	2.5	stimuli/Faces/EMIfemale25-2neutral.bmp		1.4067	Hit
4.5866	2.5	stimuli/Faces/EMWfemale21-5neutral.bmp	NaN	NaN	NoResp
7.8898	2.5	stimuli/Faces/EMWfemale25neutral.bmp		1.2706	Miss
11.5933	2.5	stimuli/Faces/JWmale88neutral.bmp		2.1700	FA
15.0609	2.5	stimuli/Faces/JWfemale68-2neutral.bmp		1.2919	Hit
18.4155	2.5	stimuli/Faces/JWfemale78-3neutral.bmp		0.8838	Hit
22.2994	2.5	stimuli/Faces/JWfemale66neutral.bmp		1.1381	CR
25.5018	2.5	stimuli/Faces/TMBmale24neutral.bmp		1.4996	Hit
29.0224	2.5	stimuli/Faces/TMBfemale33-2neutral.bmp	NaN	NaN	NoResp
32.9914	2.5	stimuli/Faces/JWfemale71-2neutral.bmp		1.9248	CR
36.5775	2.5	stimuli/Faces/EMWfemale30neutral.bmp		1.4757	CR
40.1964	2.5	stimuli/Faces/JWfemale77neutral.bmp		1.7345	CR
43.3144	2.5	stimuli/Faces/EMBmale26neutral.bmp		1.0030	Hit
46.5190	2.5	stimuli/Faces/EMWfemale22-3neutral.bmp	NaN	NaN	NoResp
49.5696	2.5	stimuli/Faces/TSFWmale68-2neutral.bmp	NaN	NaN	NoResp
52.7221	2.5	stimuli/Faces/TSFBfemale63neutral.bmp		1.2611	Hit
56.2573	2.5	stimuli/Faces/TSFWmale57neutral.bmp		0.8519	CR
60.1781	2.5	stimuli/Faces/JWfemale63-3neutral.bmp		1.6093	CR
63.8299	2.5	stimuli/Faces/EMHmale22neutral.bmp		1.2655	CR
67.6651	2.5	stimuli/Faces/TMWfemale37neutral.bmp		1.0273	CR
71.3847	2.5	stimuli/Faces/EMBfemale26neutral.bmp		1.4266	CR
74.7203	2.5	stimuli/Faces/TSFBfemale78-2neutral.bmp		1.0600	Hit
78.0902	2.5	stimuli/Faces/TSFBfemale54neutral.bmp		1.9430	Miss
81.3587	2.5	stimuli/Faces/TMWfemale36neutral.bmp	NaN	NaN	NoResp
84.7786	2.5	stimuli/Faces/EMBfemale22-4neutral.bmp		0.8656	Hit
88.4813	2.5	stimuli/Faces/JWmale81-2neutral.bmp		1.4427	FA
92.0333	2.5	stimuli/Faces/EMIfemale26neutral.bmp		0.8741	CR
95.7686	2.5	stimuli/Faces/EMWmale33neutral.bmp		0.9287	CR
99.7046	2.5	stimuli/Faces/JWfemale74neutral.bmp		1.3117	CR
103.1585	2.5	stimuli/Faces/TMBmale28neutral.bmp		1.5725	Hit
106.6111	2.5	stimuli/Faces/JWfemale70-4neutral.bmp		1.3149	Miss
110.3798	2.5	stimuli/Faces/JWfemale74-2neutral.bmp		0.9985	CR
113.8675	2.5	stimuli/Faces/TSFBfemale70-2neutral.bmp		1.1768	Hit
117.0341	2.5	stimuli/Faces/EMBfemale21-3neutral.bmp		1.6283	Miss
121.0376	2.5	stimuli/Faces/EMWfemale34neutral.bmp		1.3977	CR
124.3247	2.5	stimuli/Faces/EMBfemale33neutral.bmp		1.2063	Miss
127.9603	2.5	stimuli/Faces/EMWmale20neutral.bmp		1.5800	CR
131.2108	2.5	stimuli/Faces/TSFWmale69neutral.bmp	NaN	NaN	NoResp
134.5301	2.5	stimuli/Faces/EMImale24-4neutral.bmp		1.0420	Hit
137.6155	2.5	stimuli/Faces/JWmale64neutral.bmp		1.5507	Hit
141.1346	2.5	stimuli/Faces/TMBmale39neutral.bmp		0.9625	CR
144.5384	2.5	stimuli/Faces/TSFBfemale63-2neutral.bmp		1.5108	Hit
148.2066	2.5	stimuli/Faces/EMWfemale21-3neutral.bmp		1.2945	CR
151.2750	2.5	stimuli/Faces/TMWmale33neutral.bmp		1.0382	Hit
154.6776	2.5	stimuli/Faces/TMWfemale49-2neutral.bmp		2.0088	Hit
157.7131	2.5	stimuli/Faces/JWmale65neutral.bmp		2.0379	Miss
161.1325	2.5	stimuli/Faces/TSFWmale71neutral.bmp		1.3476	Hit
164.9870	2.5	stimuli/Faces/TSFBfemale50neutral.bmp		2.3650	FA
168.8549	2.5	stimuli/Faces/TSFBfemale74-2neutral.bmp		2.2984	CR
172.7904	2.5	stimuli/Faces/EMBfemale20-2neutral.bmp		0.9735	CR
175.9760	2.5	stimuli/Faces/EMWmale21-3neutral.bmp		2.0152	Hit
179.9649	2.5	stimuli/Faces/TMBmale49neutral.bmp		0.9661	FA
183.9479	2.5	stimuli/Faces/JWfemale76-4neutral.bmp		2.2462	CR
187.5678	2.5	stimuli/Faces/TMBmale21neutral.bmp		2.0232	CR
191.3392	2.5	stimuli/Faces/EMImale25neutral.bmp		1.5581	CR
194.9565	2.5	stimuli/Faces/TMWmale34-4neutral.bmp		1.0524	FA
198.1267	2.5	stimuli/Faces/Wmale_55-3.bmp		2.0055	Hit
201.7279	2.5	stimuli/Faces/EMBfemale22-3neutral.bmp		1.4530	CR
204.7970	2.5	stimuli/Faces/JWfemale42neutral.bmp		1.3063	Hit
208.7007	2.5	stimuli/Faces/TMWfemale34-2neutral.bmp		1.5314	CR
212.4200	2.5	stimuli/Faces/TMBmale30neutral.bmp		1.8101	FA
215.5215	2.5	stimuli/Faces/EMBfemale25neutral.bmp		1.3495	Hit
218.9915	2.5	stimuli/Faces/TSFBmale50neutral.bmp		1.0975	Hit
222.8609	2.5	stimuli/Faces/EMWfemale22neutral.bmp		0.9701	CR
226.6459	2.5	stimuli/Faces/JWfemale73-2neutral.bmp		1.6962	CR
229.8816	2.5	stimuli/Faces/TMBfemale33neutral.bmp		0.7985	Hit
233.6842	2.5	stimuli/Faces/TSFWmale79neutral.bmp		1.5319	CR
236.9532	2.5	stimuli/Faces/TMWmale43neutral.bmp		1.8849	Miss
240.6228	2.5	stimuli/Faces/TSFWmale42neutral.bmp		1.3654	CR
244.5253	2.5	stimuli/Faces/JWfemale69-2neutral.bmp	NaN	NaN	NoResp
248.5473	2.5	stimuli/Faces/TMBfemale41neutral.bmp		1.5731	FA
252.3644	2.5	stimuli/Faces/TMBmale44neutral.bmp		1.4214	CR
255.9331	2.5	stimuli/Faces/EMWmale32neutral.bmp		1.0093	CR
259.8863	2.5	stimuli/Faces/EMBfemale21neutral.bmp		1.2895	CR
263.6558	2.5	stimuli/Faces/EMImale23-6neutral.bmp		1.2920	CR
267.2757	2.5	stimuli/Faces/TMWfemale43neutral.bmp		1.8803	CR
270.3951	2.5	stimuli/Faces/TSFBfemale62neutral.bmp		1.4988	Miss
273.6130	2.5	stimuli/Faces/TSFBfemale65-2neutral.bmp	NaN	NaN	NoResp
277.5659	2.5	stimuli/Faces/JWfemale65-2neutral.bmp		1.2511	CR
280.7012	2.5	stimuli/Faces/JWmale67neutral.bmp		1.0817	Hit
284.1390	2.5	stimuli/Faces/TSFWmale54neutral.bmp	NaN	NaN	NoResp
287.8736	2.5	stimuli/Faces/TSFWmale74neutral.bmp		1.0674	FA
291.0251	2.5	stimuli/Faces/JWfemale79neutral.bmp		0.9425	Hit
294.5291	2.5	stimuli/Faces/TMBmale21-3neutral.bmp		0.9728	Hit
297.8973	2.5	stimuli/Faces/JWfemale65-4neutral.bmp	NaN	NaN	NoResp
301.2833	2.5	stimuli/Faces/EMBfemale49neutral.bmp		1.2167	Miss
304.5852	2.5	stimuli/Faces/TSFBmale77neutral.bmp		0.9356	Hit
307.6372	2.5	stimuli/Faces/EMBmale20neutral.bmp		0.8148	Hit
311.2065	2.5	stimuli/Faces/JWfemale72-2neutral.bmp		0.8485	CR
314.2922	2.5	stimuli/Faces/TSFWmale88neutral.bmp		1.4347	Miss
317.4608	2.5	stimuli/Faces/TMWmale41neutral.bmp		1.4411	Hit
321.4307	2.5	stimuli/Faces/TMWmale32neutral.bmp	NaN	NaN	NoResp
324.4501	2.5	stimuli/Faces/WBfemale47neutral.bmp		1.1039	Hit
328.2521	2.5	stimuli/Faces/JWmale69-2neutral.bmp		0.8937	CR
331.9376	2.5	stimuli/Faces/EMImale23-2neutral.bmp		1.0665	FA
335.2406	2.5	stimuli/Faces/EMBmale55neutral.bmp		0.9212	Hit
338.7430	2.5	stimuli/Faces/TSFWmale77neutral.bmp		1.1870	Miss
342.5976	2.5	stimuli/Faces/EMWmale52neutral.bmp		1.1584	CR
345.9474	2.5	stimuli/Faces/JWmale79neutral.bmp		1.2775	Miss
349.5012	2.5	stimuli/Faces/JWfemale71-5neutral.bmp		0.9082	CR
