onset	duration	face	response	response_time	trial_type
0.9346	2.5	stimuli/Faces/TSFWmale37neutral.bmp		0.9708	Hit
4.2871	2.5	stimuli/Faces/JWfemale60neutral.bmp		1.0222	FA
8.2405	2.5	stimuli/Faces/EMBfemale22-2neutral.bmp		0.6815	Hit
11.3587	2.5	stimuli/Faces/TSFHfemale64neutral.bmp		1.1091	Hit
14.8774	2.5	stimuli/Faces/JWfemale82-2neutral.bmp		0.9105	CR
17.9800	2.5	stimuli/Faces/JWfemale71-2neutral.bmp		0.7780	Hit
21.7985	2.5	stimuli/Faces/TMBfemale41neutral.bmp		1.3839	FA
25.2190	2.5	stimuli/Faces/JWfemale68-2neutral.bmp		0.7015	Hit
28.8374	2.5	stimuli/Faces/TMBfemale51neutral.bmp		1.2940	CR
32.4250	2.5	stimuli/Faces/EMBfemale20-2neutral.bmp		1.6159	Hit
36.3286	2.5	stimuli/Faces/EMWfemale30neutral.bmp		2.0511	Miss
40.3140	2.5	stimuli/Faces/JWfemale70-2neutral.bmp		1.8957	Miss
43.5655	2.5	stimuli/Faces/JWmale81-2neutral.bmp		1.1625	CR
46.8178	2.5	stimuli/Faces/WBfemale47neutral.bmp		1.2203	CR
50.6702	2.5	stimuli/Faces/TMBfemale57neutral.bmp		0.8615	Hit
54.4227	2.5	stimuli/Faces/EMBfemale25neutral.bmp		0.6899	Hit
57.8750	2.5	stimuli/Faces/TSFBfemale74-2neutral.bmp	NaN	1.2029	CR
61.6116	2.5	stimuli/Faces/EMBfemale21-2neutral.bmp		2.1088	CR
64.7466	2.5	stimuli/Faces/EMBfemale29neutral.bmp		1.2759	CR
68.5165	2.5	stimuli/Faces/EMWfemale24-2neutral.bmp		1.3060	CR
71.6851	2.5	stimuli/Faces/JWfemale77-2neutral.bmp		2.1942	Miss
74.9569	2.5	stimuli/Faces/JWfemale71-5neutral.bmp		NaN	NoResp
78.8402	2.5	stimuli/Faces/EMBmale20neutral.bmp		1.0643	Hit
82.8099	2.5	stimuli/Faces/JWfemale42neutral.bmp	NaN	0.8293	CR
86.7803	2.5	stimuli/Faces/TMWmale30neutral.bmp		0.9226	CR
90.5830	2.5	stimuli/Faces/TSFWmale87neutral.bmp		1.1840	Hit
94.5377	2.5	stimuli/Faces/JWmale65neutral.bmp		0.7955	Hit
97.7705	2.5	stimuli/Faces/EMWmale32neutral.bmp		1.1738	CR
100.9566	2.5	stimuli/Faces/EMImale23-6neutral.bmp		1.6177	CR
104.7770	2.5	stimuli/Faces/TSFBfemale65-3neutral.bmp		1.5733	CR
108.2279	2.5	stimuli/Faces/JWfemale70-4neutral.bmp		1.8535	CR
111.4480	2.5	stimuli/Faces/EMIfemale19neutral.bmp		1.3145	Miss
114.5657	2.5	stimuli/Faces/EMWmale40neutral.bmp		1.9361	Hit
117.8679	2.5	stimuli/Faces/TSFWfemale34neutral.bmp		2.0475	CR
121.1718	2.5	stimuli/Faces/JWfemale67-4neutral.bmp		0.8659	Hit
124.8732	2.5	stimuli/Faces/Wmale_55-3.bmp		1.1603	Hit
128.1615	2.5	stimuli/Faces/EMHmale22neutral.bmp	NaN	1.7214	Hit
131.2443	2.5	stimuli/Faces/EMWmale33neutral.bmp		2.0946	Miss
134.9144	2.5	stimuli/Faces/TMBmale44neutral.bmp		1.6937	CR
138.8336	2.5	stimuli/Faces/TMWfemale34-2neutral.bmp		1.5884	Hit
141.8685	2.5	stimuli/Faces/TSFWmale79-3neutral.bmp		NaN	NoResp
145.6392	2.5	stimuli/Faces/TSFBfemale62neutral.bmp		0.7225	Hit
149.1577	2.5	stimuli/Faces/TMWmale71neutral.bmp		1.8519	FA
152.8777	2.5	stimuli/Faces/TSFBfemale67neutral.bmp		1.1960	CR
156.1453	2.5	stimuli/Faces/TMWmale34-3neutral.bmp		1.6294	Hit
159.4646	2.5	stimuli/Faces/EMWmale52neutral.bmp		1.5551	Miss
162.9339	2.5	stimuli/Faces/JWfemale76-4neutral.bmp		1.2624	Hit
165.9549	2.5	stimuli/Faces/TSFWmale88neutral.bmp		1.4974	FA
169.8386	2.5	stimuli/Faces/JWmale71neutral.bmp		1.7577	Miss
173.4083	2.5	stimuli/Faces/EMBfemale21neutral.bmp		1.7967	FA
176.9611	2.5	stimuli/Faces/TSFWmale71neutral.bmp		1.1951	CR
180.7466	2.5	stimuli/Faces/JWmale66neutral.bmp		NaN	NoResp
184.5827	2.5	stimuli/Faces/JWmale79neutral.bmp		2.2363	CR
188.0516	2.5	stimuli/Faces/Wmale_50.bmp		2.0743	Miss
191.7209	2.5	stimuli/Faces/TSFWmale67-2neutral.bmp		1.1463	CR
195.5239	2.5	stimuli/Faces/TSFWmale69neutral.bmp		1.6422	Miss
199.2598	2.5	stimuli/Faces/EMBfemale22-3neutral.bmp		2.0137	CR
202.7625	2.5	stimuli/Faces/TSFBfemale70-2neutral.bmp		0.9293	Hit
206.7668	2.5	stimuli/Faces/TMBmale21neutral.bmp		0.9233	CR
210.6348	2.5	stimuli/Faces/JWfemale86-2neutral.bmp		0.9769	CR
214.3226	2.5	stimuli/Faces/TMBfemale33neutral.bmp		0.9673	CR
217.8900	2.5	stimuli/Faces/TSFWmale70neutral.bmp		1.3012	CR
220.9088	2.5	stimuli/Faces/TSFWmale42neutral.bmp		1.8923	CR
224.3296	2.5	stimuli/Faces/EMBfemale22neutral.bmp		0.8023	CR
227.7147	2.5	stimuli/Faces/JWmale80neutral.bmp		1.7431	CR
230.8159	2.5	stimuli/Faces/JWfemale63-3neutral.bmp		1.7532	CR
234.7529	2.5	stimuli/Faces/EMImale24-2neutral.bmp		1.6364	Miss
238.3721	2.5	stimuli/Faces/TSFWmale61neutral.bmp		NaN	NoResp
241.5401	2.5	stimuli/Faces/EMWfemale34neutral.bmp		1.7298	CR
245.0766	2.5	stimuli/Faces/JWfemale37neutral.bmp		1.0933	CR
248.7134	2.5	stimuli/Faces/EMBmale26neutral.bmp		1.2826	CR
252.3672	2.5	stimuli/Faces/JWmale38neutral.bmp		1.3988	Hit
255.7670	2.5	stimuli/Faces/TMBmale18neutral.bmp		1.4267	CR
259.3208	2.5	stimuli/Faces/TMWmale20-4neutral.bmp		1.7922	Miss
262.9058	2.5	stimuli/Faces/JWfemale65-4neutral.bmp		0.8213	CR
266.8253	2.5	stimuli/Faces/TMWmale25-2neutral.bmp		2.2765	Miss
270.1955	2.5	stimuli/Faces/TMWmale19neutral.bmp	NaN	1.1826	Miss
273.3483	2.5	stimuli/Faces/EMWfemale25neutral.bmp		2.1894	Hit
277.3497	2.5	stimuli/Faces/JWfemale74-2neutral.bmp		1.1629	Hit
280.6523	2.5	stimuli/Faces/EMWmale21-3neutral.bmp		1.4997	Miss
284.5211	2.5	stimuli/Faces/EMBfemale20neutral.bmp	NaN	1.3925	Hit
287.7233	2.5	stimuli/Faces/JWfemale77-4neutral.bmp		1.4842	FA
290.9433	2.5	stimuli/Faces/EMBfemale22-4neutral.bmp		1.2744	FA
294.6477	2.5	stimuli/Faces/EMImale25-2neutral.bmp		2.3660	Miss
298.2995	2.5	stimuli/Faces/TSFBfemale61neutral.bmp		0.8613	Hit
301.6340	2.5	stimuli/Faces/EMImale21-2neutral.bmp		0.7330	Hit
304.7858	2.5	stimuli/Faces/Wmale_55.bmp		1.1481	Hit
307.9879	2.5	stimuli/Faces/TMWfemale31neutral.bmp		1.1678	Hit
311.4739	2.5	stimuli/Faces/TMWmale34neutral.bmp		1.9232	CR
314.5262	2.5	stimuli/Faces/TSFWmale46neutral.bmp		1.5864	Hit
318.2454	2.5	stimuli/Faces/JWfemale50neutral.bmp		1.7170	Miss
321.8480	2.5	stimuli/Faces/JWmale69-2neutral.bmp		1.8901	CR
324.9005	2.5	stimuli/Faces/JWfemale79-4neutral.bmp		1.1332	Hit
328.7529	2.5	stimuli/Faces/JWfemale74neutral.bmp		1.5581	CR
332.7725	2.5	stimuli/Faces/EMWfemale21-3neutral.bmp		1.3425	CR
336.2755	2.5	stimuli/Faces/TMBfemale33-2neutral.bmp		2.2568	Hit
339.6273	2.5	stimuli/Faces/EMBfemale21-4neutral.bmp		1.8190	FA
342.6973	2.5	stimuli/Faces/JWfemale66neutral.bmp		1.1466	Miss
346.1002	2.5	stimuli/Faces/TSFWmale63neutral.bmp		1.3414	CR
349.4688	2.5	stimuli/Faces/EMImale23-2neutral.bmp		0.8178	Hit
