onset	duration	word	response	response_time	trial_type
0.9341	2.5	Button	NaN	NaN	Subsequent_Hit
4.0198	2.5	Boat		2.0744	Subsequent_Hit
7.7891	2.5	Pig		0.9599	Subsequent_Hit
11.1745	2.5	Cake		0.8664	Subsequent_Hit
15.0443	2.5	Stick		1.2695	Subsequent_Hit
18.4634	2.5	Orange		0.8346	Subsequent_Hit
22.3162	2.5	Thumb		1.3788	Subsequent_Hit
26.2691	2.5	Glove		1.2151	Subsequent_Hit
29.6549	2.5	Rocket		1.4483	Subsequent_Hit
33.2409	2.5	Honey		1.0941	Subsequent_Hit
36.3764	2.5	Shirt		1.0746	Subsequent_Hit
39.8288	2.5	Mirror		1.0633	Subsequent_Hit
43.2831	2.5	Tooth		0.8367	Subsequent_Hit
46.3336	2.5	Brick		0.8703	Subsequent_Hit
50.1196	2.5	Door		0.6974	Subsequent_Hit
53.3221	2.5	Rum		0.9968	Subsequent_Hit
57.2415	2.5	Bath		0.8804	Subsequent_Hit
60.7773	2.5	Mattress		0.8366	Subsequent_Hit
64.7801	2.5	Straw		0.7800	Subsequent_Hit
67.9659	2.5	Skin		0.8719	Subsequent_Hit
71.4184	2.5	Skunk		0.8884	Subsequent_Hit
74.6391	2.5	Beef		0.7217	Subsequent_Hit
78.1899	2.5	Spoon		0.7568	Subsequent_Hit
81.3421	2.5	Garden		0.7387	Subsequent_Hit
84.6946	2.5	Jeep		0.7283	Subsequent_Hit
88.5974	2.5	Cucumber		0.8136	Subsequent_Hit
92.0166	2.5	Sheep		0.7464	Subsequent_Hit
95.2688	2.5	Typewriter		1.0330	Subsequent_Hit
98.9049	2.5	Pickle		0.9450	Subsequent_Hit
102.8244	2.5	Cream		0.6817	Subsequent_Hit
106.1768	2.5	Blanket		1.0842	Subsequent_Hit
109.3457	2.5	Steak		0.7961	Subsequent_Hit
113.2816	2.5	Lemonade		0.7604	Subsequent_Hit
117.2346	2.5	Kettle		1.1183	Subsequent_Hit
121.0540	2.5	Jacket		0.7779	Subsequent_Hit
124.4231	2.5	Potato		0.7419	Subsequent_Hit
128.2759	2.5	Seed		0.6341	Subsequent_Hit
131.8951	2.5	Butter		0.8369	Subsequent_Hit
135.4979	2.5	Plum		0.8130	Subsequent_Hit
139.2505	2.5	Sleigh		0.7134	Subsequent_Hit
142.6196	2.5	Sand		0.9974	Subsequent_Hit
146.1388	2.5	Pencil		0.7173	Subsequent_Hit
149.9748	2.5	Earthworm		1.0250	Subsequent_Hit
153.0763	2.5	Bed		0.9137	Subsequent_Hit
156.7631	2.5	Sheet		0.7178	Subsequent_Hit
160.0655	2.5	Whale		0.8583	Subsequent_Hit
163.1507	2.5	Hat		0.7511	Subsequent_Hit
166.4701	2.5	Cigarette		1.3218	Subsequent_Hit
170.1894	2.5	Pants		1.0893	Subsequent_Hit
173.6920	2.5	Frog		1.0780	Subsequent_Hit
177.3446	2.5	Tent		0.9353	Subsequent_Hit
180.4969	2.5	Clown		1.2020	Subsequent_Hit
183.7159	2.5	Collar		1.2789	Subsequent_Hit
186.9349	2.5	Sun		0.9152	Subsequent_Hit
190.9211	2.5	Chalk		0.6737	Subsequent_Hit
194.8240	2.5	Lamb		0.7669	Subsequent_Miss
197.9427	2.5	Umbrella		0.8380	Subsequent_Miss
201.6789	2.5	Glass		0.7010	Subsequent_Hit
205.2822	2.5	Pill		0.8537	Subsequent_Hit
209.0174	2.5	Tiger		0.8824	Subsequent_Hit
212.6700	2.5	Clothes		0.7688	Subsequent_Miss
216.3727	2.5	Cotton		0.6596	Subsequent_Hit
220.1773	2.5	Heart		0.7626	Subsequent_Hit
223.1774	2.5	Wood		1.0454	Subsequent_Miss
226.8470	2.5	Birch		0.8557	Subsequent_Miss
230.1160	2.5	Bandage		0.9628	Subsequent_Miss
233.7186	2.5	Elbow		0.8662	Subsequent_Miss
237.1876	2.5	Snow		0.7773	Subsequent_Hit
240.4401	2.5	Coffee		1.2148	Subsequent_Hit
244.1094	2.5	Puddle		1.0743	Subsequent_Miss
247.9793	2.5	Eye		0.8466	Subsequent_Hit
251.2646	2.5	Window		0.8352	Subsequent_Miss
254.3335	2.5	Peach		1.4331	Subsequent_Hit
257.5023	2.5	Painting		0.8427	Subsequent_Hit
261.2067	2.5	Cookie		0.9150	Subsequent_Hit
264.5242	2.5	Lion		1.2224	Subsequent_Hit
268.0266	2.5	Tomato		0.8152	Subsequent_Miss
271.2956	2.5	Duck		0.8622	Subsequent_Hit
274.3478	2.5	Harbour		0.9361	Subsequent_Hit
278.2172	2.5	Nose		1.2297	Subsequent_Hit
281.4196	2.5	Diamond		0.8352	Subsequent_Hit
284.9387	2.5	Vegetable		0.9701	Subsequent_Miss
288.0410	2.5	Lemon		1.0217	Subsequent_Hit
291.0757	2.5	Pear		0.7840	Subsequent_Hit
294.6308	2.5	Cereal		0.7101	Subsequent_Hit
298.4318	2.5	Bean		0.6880	Subsequent_Hit
301.5007	2.5	Pond		1.4691	Subsequent_Hit
304.8209	2.5	Weed		1.1238	Subsequent_Hit
308.3561	2.5	Egg		0.7936	Subsequent_Hit
312.1250	2.5	Drum		0.9476	Subsequent_Hit
316.1284	2.5	Car		0.7873	Subsequent_Hit
319.4303	2.5	Rug		1.6453	Subsequent_Hit
323.2173	2.5	Tea		0.9214	Subsequent_Hit
326.7700	2.5	Mountain		0.8526	Subsequent_Hit
330.4714	2.5	Handkerchief		0.7744	Subsequent_Hit
334.4410	2.5	Onion		1.0326	Subsequent_Hit
337.9102	2.5	Bread		1.1225	Subsequent_Hit
341.9130	2.5	Strawberry		0.7839	Subsequent_Miss
345.3154	2.5	Carrot		0.7373	Subsequent_Hit
349.2848	2.5	Film		0.7659	Subsequent_Hit
