onset	duration	face	response	response_time	trial_type
0.6528	2.5	stimuli/Faces/JWfemale70-2neutral.bmp		NaN	NoResp
4.0028	2.5	stimuli/Faces/TMWmale43neutral.bmp		1.0430	Hit
7.3901	2.5	stimuli/Faces/Wmale_65.bmp		0.8846	Hit
10.9432	2.5	stimuli/Faces/EMWmale32neutral.bmp		0.9620	Hit
14.0769	2.5	stimuli/Faces/JWfemale78-6neutral.bmp		0.7312	CR
18.0463	2.5	stimuli/Faces/JWmale71neutral.bmp		0.9794	Hit
21.8659	2.5	stimuli/Faces/TSFWmale68-2neutral.bmp		1.1920	CR
25.4689	2.5	stimuli/Faces/JWmale88neutral.bmp		1.3005	CR
28.5206	2.5	stimuli/Faces/EMBfemale22-4neutral.bmp		0.8613	CR
32.5070	2.5	stimuli/Faces/EMImale23-2neutral.bmp		0.9223	Hit
35.6589	2.5	stimuli/Faces/EMBfemale21-2neutral.bmp		1.1629	Hit
39.3298	2.5	stimuli/Faces/JWfemale67-4neutral.bmp		1.6229	CR
42.9489	2.5	stimuli/Faces/TMWmale37neutral.bmp		1.1763	FA
46.0000	2.5	stimuli/Faces/TSFBfemale65-3neutral.bmp		0.9775	Hit
50.0195	2.5	stimuli/Faces/JWfemale82-2neutral.bmp		1.1638	Hit
53.4721	2.5	stimuli/Faces/EMWmale21-3neutral.bmp		1.1569	CR
56.8268	2.5	stimuli/Faces/JWfemale66neutral.bmp		0.9677	Miss
60.6446	2.5	stimuli/Faces/TMBmale49neutral.bmp		1.1430	Miss
63.7625	2.5	stimuli/Faces/Wmale_55-2.bmp		1.1110	FA
67.7345	2.5	stimuli/Faces/TMBfemale51neutral.bmp		1.0852	CR
71.4362	2.5	stimuli/Faces/JWfemale68-2neutral.bmp		1.1176	CR
75.1544	2.5	stimuli/Faces/TMWfemale36neutral.bmp		1.7058	Miss
78.2739	2.5	stimuli/Faces/JWmale69-2neutral.bmp		1.1155	Miss
82.2091	2.5	stimuli/Faces/TMBmale18neutral.bmp		1.0448	Hit
85.4613	2.5	stimuli/Faces/TMWfemale31neutral.bmp		0.9005	Miss
88.5134	2.5	stimuli/Faces/EMBfemale22-3neutral.bmp		0.9802	CR
92.3496	2.5	stimuli/Faces/TSFWmale61neutral.bmp		1.0637	CR
96.2358	2.5	stimuli/Faces/EMHmale22neutral.bmp		0.8771	CR
99.7051	2.5	stimuli/Faces/TSFBmale50neutral.bmp		1.4964	Miss
103.6081	2.5	stimuli/Faces/JWfemale79neutral.bmp		1.4816	Hit
107.1115	2.5	stimuli/Faces/TSFBfemale61neutral.bmp		0.9504	Miss
110.6473	2.5	stimuli/Faces/TSFWfemale52-2neutral.bmp	NaN	0.9246	CR
113.8820	2.5	stimuli/Faces/TSFBmale77neutral.bmp		0.7096	Miss
117.4018	2.5	stimuli/Faces/WBmale31neutral.bmp		0.9295	Miss
121.4045	2.5	stimuli/Faces/TMWmale34-3neutral.bmp		1.5475	Miss
125.1407	2.5	stimuli/Faces/TMWmale34-4neutral.bmp		0.9153	Miss
128.3589	2.5	stimuli/Faces/TSFWmale74neutral.bmp		0.9876	CR
131.7949	2.5	stimuli/Faces/TMWfemale49-2neutral.bmp		0.7174	Miss
135.6476	2.5	stimuli/Faces/TMWmale25-2neutral.bmp		1.1976	Miss
139.2001	2.5	stimuli/Faces/TMWfemale40neutral.bmp		0.9294	CR
142.6189	2.5	stimuli/Faces/EMIfemale19neutral.bmp		1.0468	CR
145.9714	2.5	stimuli/Faces/JWfemale65-2neutral.bmp		1.2380	CR
149.4405	2.5	stimuli/Faces/JWfemale78neutral.bmp		1.0067	CR
152.7267	2.5	stimuli/Faces/Wmale_55-3.bmp		1.4105	CR
156.2957	2.5	stimuli/Faces/TMWmale34neutral.bmp		0.9370	CR
159.6645	2.5	stimuli/Faces/TSFWmale42neutral.bmp		1.3075	Miss
163.3355	2.5	stimuli/Faces/TSFWmale54neutral.bmp		0.6971	CR
167.1378	2.5	stimuli/Faces/EMBfemale25neutral.bmp		0.6774	CR
170.4058	2.5	stimuli/Faces/EMImale24-2neutral.bmp		0.8842	Miss
174.0248	2.5	stimuli/Faces/TSFWmale75-3neutral.bmp		0.8724	CR
177.6632	2.5	stimuli/Faces/JWfemale69-2neutral.bmp		0.7785	CR
180.9968	2.5	stimuli/Faces/TMWfemale43neutral.bmp		1.0009	Miss
184.7993	2.5	stimuli/Faces/TSFBfemale63-2neutral.bmp	NaN	0.7093	FA
188.5350	2.5	stimuli/Faces/JWfemale65-6neutral.bmp		1.0035	CR
192.1878	2.5	stimuli/Faces/EMWfemale34neutral.bmp		1.0560	Miss
196.0583	2.5	stimuli/Faces/TSFWmale57neutral.bmp		1.0324	CR
199.1596	2.5	stimuli/Faces/EMWmale19-3neutral.bmp		0.8885	Hit
202.3620	2.5	stimuli/Faces/JWfemale39neutral.bmp		1.1492	Miss
205.8645	2.5	stimuli/Faces/EMBfemale20-2neutral.bmp		0.8018	CR
208.8832	2.5	stimuli/Faces/JWfemale73-2neutral.bmp		1.1065	CR
212.8044	2.5	stimuli/Faces/EMWfemale21-5neutral.bmp		0.9452	Hit
216.0718	2.5	stimuli/Faces/EMIfemale25-2neutral.bmp		1.4120	Hit
219.3743	2.5	stimuli/Faces/TMBmale41neutral.bmp		1.5596	CR
222.6940	2.5	stimuli/Faces/EMWfemale30neutral.bmp		1.0032	CR
225.7626	2.5	stimuli/Faces/TMBfemale37neutral.bmp		0.9274	CR
228.9486	2.5	stimuli/Faces/TSFWmale70neutral.bmp		0.8891	Hit
232.5500	2.5	stimuli/Faces/EMBfemale21-3neutral.bmp		1.3332	CR
235.9365	2.5	stimuli/Faces/JWfemale63-3neutral.bmp		0.7150	Miss
239.4229	2.5	stimuli/Faces/JWmale70neutral.bmp		1.5363	FA
242.5914	2.5	stimuli/Faces/TSFBfemale65neutral.bmp		0.7176	CR
246.3104	2.5	stimuli/Faces/EMBfemale20neutral.bmp		0.9761	Hit
250.2128	2.5	stimuli/Faces/TMBmale39neutral.bmp		0.9414	Miss
253.3148	2.5	stimuli/Faces/JWmale89neutral.bmp		1.3755	Hit
257.0184	2.5	stimuli/Faces/TMWmale20-4neutral.bmp		0.8503	Miss
260.2200	2.5	stimuli/Faces/EMWfemale22-3neutral.bmp		1.1837	CR
264.0893	2.5	stimuli/Faces/TSFWmale87neutral.bmp		1.0220	Hit
268.0424	2.5	stimuli/Faces/JWmale64neutral.bmp		0.9787	Hit
271.7284	2.5	stimuli/Faces/TSFWmale77neutral.bmp		0.7773	CR
275.2474	2.5	stimuli/Faces/TSFAmale68neutral.bmp		1.1940	Miss
279.2517	2.5	stimuli/Faces/EMWfemale25neutral.bmp		0.6983	CR
283.0029	2.5	stimuli/Faces/EMImale23-4neutral.bmp		0.9269	CR
286.7723	2.5	stimuli/Faces/TMBmale28neutral.bmp		1.0348	Hit
289.8080	2.5	stimuli/Faces/TSFBfemale65-2neutral.bmp		1.1973	CR
292.9608	2.5	stimuli/Faces/JWfemale72-2neutral.bmp		1.0225	Miss
296.5292	2.5	stimuli/Faces/EMBmale55neutral.bmp		1.2462	Miss
300.2987	2.5	stimuli/Faces/TMWmale41neutral.bmp		0.9928	CR
303.6179	2.5	stimuli/Faces/JWmale38neutral.bmp		1.0046	Miss
307.5384	2.5	stimuli/Faces/JWfemale77-4neutral.bmp		1.4054	CR
310.9569	2.5	stimuli/Faces/TMWmale32neutral.bmp		0.9985	CR
314.4089	2.5	stimuli/Faces/Wmale_50.bmp		1.4922	CR
318.1806	2.5	stimuli/Faces/TSFWmale37neutral.bmp		0.9359	Miss
321.7637	2.5	stimuli/Faces/JWfemale71-2neutral.bmp		0.7902	Hit
325.7173	2.5	stimuli/Faces/TMBfemale33neutral.bmp		0.7508	CR
329.5531	2.5	stimuli/Faces/EMBfemale21-4neutral.bmp		0.9594	CR
332.8555	2.5	stimuli/Faces/EMWmale40neutral.bmp		1.0783	Hit
336.2744	2.5	stimuli/Faces/TSFWmale46neutral.bmp		1.0072	CR
339.5268	2.5	stimuli/Faces/EMImale25-2neutral.bmp		1.0145	Hit
342.7458	2.5	stimuli/Faces/EMWfemale21-3neutral.bmp		0.6665	CR
346.3984	2.5	stimuli/Faces/TSFWmale79neutral.bmp		0.6538	CR
349.4839	2.5	stimuli/Faces/JWmale80neutral.bmp		0.6309	Miss
