onset	duration	face	response	response_time	trial_type
1.2181	2.5	stimuli/Faces/JWfemale48neutral.bmp		1.8331	Hit
5.2040	2.5	stimuli/Faces/JWfemale39neutral.bmp		1.0950	FA
8.7899	2.5	stimuli/Faces/TMBmale28neutral.bmp		1.1193	CR
12.1925	2.5	stimuli/Faces/JWfemale71-5neutral.bmp		1.0433	Hit
16.0283	2.5	stimuli/Faces/TSFBfemale63-2neutral.bmp		0.9853	Hit
19.1474	2.5	stimuli/Faces/JWfemale66neutral.bmp		NaN	NoResp
22.3498	2.5	stimuli/Faces/EMWfemale20-2neutral.bmp		1.1830	Miss
25.7188	2.5	stimuli/Faces/TSFWmale71neutral.bmp		1.1341	Miss
28.8559	2.5	stimuli/Faces/EMHmale22neutral.bmp		0.9001	CR
32.1748	2.5	stimuli/Faces/EMBfemale21-3neutral.bmp		0.9070	CR
35.4758	2.5	stimuli/Faces/TSFBfemale78-2neutral.bmp		0.9066	Hit
39.2785	2.5	stimuli/Faces/EMBfemale21neutral.bmp		1.3281	FA
42.6998	2.5	stimuli/Faces/TMBmale24neutral.bmp		0.9177	Hit
46.1501	2.5	stimuli/Faces/EMBfemale22neutral.bmp		1.2190	CR
49.7209	2.5	stimuli/Faces/EMWmale21-3neutral.bmp		1.7751	CR
52.9892	2.5	stimuli/Faces/EMBfemale21-4neutral.bmp		1.0193	Hit
56.6411	2.5	stimuli/Faces/JWmale64neutral.bmp		0.7436	CR
60.5104	2.5	stimuli/Faces/TMWmale45neutral.bmp		0.8961	Hit
64.4636	2.5	stimuli/Faces/JWfemale78neutral.bmp		0.9642	CR
68.1825	2.5	stimuli/Faces/TMBmale21-3neutral.bmp		0.8598	FA
72.1688	2.5	stimuli/Faces/EMBfemale25neutral.bmp		1.2765	CR
75.9883	2.5	stimuli/Faces/EMIfemale19neutral.bmp		1.1387	CR
79.9077	2.5	stimuli/Faces/EMWmale32neutral.bmp		1.1718	CR
83.8938	2.5	stimuli/Faces/JWfemale77neutral.bmp		0.8342	Hit
87.8467	2.5	stimuli/Faces/TSFBfemale62neutral.bmp		1.0351	FA
91.5166	2.5	stimuli/Faces/TMBfemale40neutral.bmp		0.8494	CR
95.0362	2.5	stimuli/Faces/EMBfemale22-2neutral.bmp		0.9603	CR
98.3374	2.5	stimuli/Faces/EMImale23-2neutral.bmp		1.2346	CR
101.6912	2.5	stimuli/Faces/JWfemale86-2neutral.bmp		0.9064	Hit
105.2258	2.5	stimuli/Faces/EMBfemale22-3neutral.bmp		1.4311	FA
108.8794	2.5	stimuli/Faces/TSFWmale87neutral.bmp		0.7516	Miss
112.2974	2.5	stimuli/Faces/JWfemale65-6neutral.bmp		1.2362	Hit
115.3330	2.5	stimuli/Faces/JWfemale76-3neutral.bmp		1.1294	Hit
119.1858	2.5	stimuli/Faces/TMWmale41neutral.bmp		0.9418	Hit
122.9903	2.5	stimuli/Faces/EMImale23-4neutral.bmp		0.9483	Hit
126.6092	2.5	stimuli/Faces/JWfemale74-2neutral.bmp		1.0140	Hit
130.0095	2.5	stimuli/Faces/EMWfemale22-3neutral.bmp		0.8808	CR
133.5467	2.5	stimuli/Faces/TSFWmale77neutral.bmp		1.8687	CR
137.1993	2.5	stimuli/Faces/Wmale_50.bmp		1.2936	Hit
140.4180	2.5	stimuli/Faces/JWfemale37neutral.bmp		0.9383	CR
143.5208	2.5	stimuli/Faces/EMIfemale25neutral.bmp		0.8746	FA
147.2893	2.5	stimuli/Faces/JWfemale77-2neutral.bmp		1.0938	Hit
150.4424	2.5	stimuli/Faces/EMBfemale20-2neutral.bmp		1.0327	CR
153.5942	2.5	stimuli/Faces/EMIfemale25-2neutral.bmp		1.4358	Miss
156.6464	2.5	stimuli/Faces/EMImale25-2neutral.bmp		1.0471	Miss
160.1319	2.5	stimuli/Faces/TSFBfemale54neutral.bmp		0.6923	FA
163.2004	2.5	stimuli/Faces/JWfemale79neutral.bmp		1.1472	FA
166.4371	2.5	stimuli/Faces/TMWfemale40neutral.bmp		1.0334	Hit
170.3225	2.5	stimuli/Faces/TSFBmale77neutral.bmp		1.3326	Hit
173.8079	2.5	stimuli/Faces/WBfemale47neutral.bmp		0.9336	Hit
177.4124	2.5	stimuli/Faces/TMWmale37neutral.bmp		0.8930	CR
181.1137	2.5	stimuli/Faces/JWmale73neutral.bmp		2.4237	CR
184.5661	2.5	stimuli/Faces/TSFBfemale65-3neutral.bmp		1.0528	CR
187.8192	2.5	stimuli/Faces/JWfemale70-2neutral.bmp		1.0574	CR
191.4046	2.5	stimuli/Faces/TMWmale43neutral.bmp		0.8351	Hit
194.9584	2.5	stimuli/Faces/EMIfemale26neutral.bmp		0.8992	CR
198.4595	2.5	stimuli/Faces/EMWmale33neutral.bmp		0.8558	Hit
201.9287	2.5	stimuli/Faces/JWfemale65-2neutral.bmp		0.9697	Hit
205.6646	2.5	stimuli/Faces/JWmale69-2neutral.bmp		0.9534	FA
209.6346	2.5	stimuli/Faces/TSFWmale79-3neutral.bmp		0.8132	Hit
212.9881	2.5	stimuli/Faces/TMBmale49neutral.bmp		0.8800	Hit
216.3049	2.5	stimuli/Faces/JWmale65neutral.bmp		0.9436	Hit
219.5245	2.5	stimuli/Faces/WBmale31neutral.bmp		1.1386	CR
223.2780	2.5	stimuli/Faces/JWfemale64-3neutral.bmp		0.8042	Hit
226.2972	2.5	stimuli/Faces/TMWmale34-2neutral.bmp		0.9003	CR
230.2989	2.5	stimuli/Faces/EMWmale52neutral.bmp		1.3303	CR
233.9353	2.5	stimuli/Faces/TSFWmale61neutral.bmp		1.3035	FA
237.0547	2.5	stimuli/Faces/TMWmale79neutral.bmp		0.9158	Hit
240.9733	2.5	stimuli/Faces/TMWfemale37neutral.bmp		0.8990	Hit
244.1259	2.5	stimuli/Faces/JWmale76neutral.bmp		0.8366	Hit
247.3112	2.5	stimuli/Faces/JWmale81-2neutral.bmp		0.8913	Hit
251.1807	2.5	stimuli/Faces/EMBfemale49neutral.bmp		0.9583	Miss
254.2327	2.5	stimuli/Faces/JWfemale71-2neutral.bmp		1.0630	CR
258.0026	2.5	stimuli/Faces/TSFWmale69neutral.bmp		0.8793	Hit
261.2043	2.5	stimuli/Faces/EMBfemale26neutral.bmp		0.8771	CR
264.2897	2.5	stimuli/Faces/TMBfemale51neutral.bmp		0.9204	Hit
267.6761	2.5	stimuli/Faces/JWmale79neutral.bmp		0.9844	Miss
270.7447	2.5	stimuli/Faces/TMWmale71neutral.bmp		1.1523	CR
274.0136	2.5	stimuli/Faces/TSFWmale74neutral.bmp		0.9339	Hit
277.3829	2.5	stimuli/Faces/EMWmale20neutral.bmp		1.3993	Hit
281.3021	2.5	stimuli/Faces/JWfemale82-2neutral.bmp		1.1711	Hit
284.5550	2.5	stimuli/Faces/JWmale70neutral.bmp		0.8929	Hit
288.2574	2.5	stimuli/Faces/TSFBfemale67neutral.bmp		1.3409	FA
291.4278	2.5	stimuli/Faces/TMBfemale33neutral.bmp		0.9219	CR
294.5300	2.5	stimuli/Faces/TMHmale18neutral.bmp		0.7817	Hit
298.5486	2.5	stimuli/Faces/JWfemale42neutral.bmp		1.2265	Miss
302.1171	2.5	stimuli/Faces/JWmale80neutral.bmp		1.1533	FA
305.6707	2.5	stimuli/Faces/JWfemale74neutral.bmp		0.9100	CR
309.5743	2.5	stimuli/Faces/TSFBfemale65-2neutral.bmp		1.1486	CR
313.3430	2.5	stimuli/Faces/TSFWmale37neutral.bmp		1.0212	CR
317.1626	2.5	stimuli/Faces/JWfemale67-4neutral.bmp		1.3532	Miss
320.4979	2.5	stimuli/Faces/EMWfemale21-3neutral.bmp		0.9717	Hit
324.3515	2.5	stimuli/Faces/TSFBfemale65neutral.bmp		0.9080	Hit
328.2536	2.5	stimuli/Faces/TSFWmale75-3neutral.bmp		0.9993	FA
331.8727	2.5	stimuli/Faces/EMWfemale24-2neutral.bmp		1.0995	CR
335.1419	2.5	stimuli/Faces/TMBmale18neutral.bmp		1.0406	CR
338.5597	2.5	stimuli/Faces/TSFHmale65neutral.bmp		1.0059	CR
342.2467	2.5	stimuli/Faces/TMWfemale36neutral.bmp		1.2210	Hit
346.0321	2.5	stimuli/Faces/TSFWmale71-4neutral.bmp		0.9526	CR
349.4853	2.5	stimuli/Faces/JWfemale80-4neutral.bmp		1.2090	Miss
