onset	duration	face	response	response_time	trial_type
1.1349	2.5	stimuli/Faces/JWfemale74neutral.bmp		1.4429	CR
4.2213	2.5	stimuli/Faces/EMWfemale34neutral.bmp		1.5236	Hit
8.2234	2.5	stimuli/Faces/EMWfemale22-3neutral.bmp		NaN	NoResp
11.3928	2.5	stimuli/Faces/TMBmale44neutral.bmp		NaN	NoResp
15.1283	2.5	stimuli/Faces/Wmale_55-2.bmp		1.4153	Hit
18.2810	2.5	stimuli/Faces/EMBfemale29neutral.bmp		1.1018	CR
21.5824	2.5	stimuli/Faces/JWfemale81-3neutral.bmp		1.3852	CR
25.0854	2.5	stimuli/Faces/EMWfemale20-2neutral.bmp		1.1395	Hit
29.0566	2.5	stimuli/Faces/TSFBfemale65neutral.bmp		1.0577	Hit
32.4740	2.5	stimuli/Faces/TMWmale37neutral.bmp		1.2973	CR
35.5266	2.5	stimuli/Faces/JWfemale42neutral.bmp		1.2510	Hit
39.1121	2.5	stimuli/Faces/JWmale88neutral.bmp		NaN	NoResp
42.3987	2.5	stimuli/Faces/JWfemale77neutral.bmp		0.8508	Hit
46.0845	2.5	stimuli/Faces/EMWfemale21-3neutral.bmp		0.9917	CR
49.1358	2.5	stimuli/Faces/TMHmale18neutral.bmp		1.0747	Hit
52.9570	2.5	stimuli/Faces/JWfemale72-2neutral.bmp		1.3968	Hit
56.3078	2.5	stimuli/Faces/TSFHmale65neutral.bmp		1.2175	CR
59.9286	2.5	stimuli/Faces/JWfemale65-4neutral.bmp		0.8656	CR
63.7965	2.5	stimuli/Faces/JWfemale78-6neutral.bmp		1.2600	Hit
67.2157	2.5	stimuli/Faces/EMBfemale21-2neutral.bmp		NaN	NoResp
70.3858	2.5	stimuli/Faces/TMWfemale40neutral.bmp		NaN	NoResp
74.0030	2.5	stimuli/Faces/Wmale_65.bmp		0.8938	CR
77.2062	2.5	stimuli/Faces/EMBfemale21neutral.bmp		NaN	NoResp
80.5584	2.5	stimuli/Faces/JWmale67neutral.bmp		1.5495	CR
84.4112	2.5	stimuli/Faces/JWmale64neutral.bmp		1.3935	CR
88.3308	2.5	stimuli/Faces/TSFWmale61neutral.bmp		0.8179	Hit
91.4499	2.5	stimuli/Faces/JWfemale86-2neutral.bmp		0.9672	Hit
95.2704	2.5	stimuli/Faces/TSFBfemale63-2neutral.bmp		0.9735	Miss
99.2565	2.5	stimuli/Faces/TMBmale28neutral.bmp		0.9213	CR
102.8078	2.5	stimuli/Faces/EMImale25neutral.bmp		1.3491	Hit
106.7119	2.5	stimuli/Faces/EMWmale40neutral.bmp		1.0770	CR
109.9298	2.5	stimuli/Faces/TSFWmale71-4neutral.bmp		NaN	NoResp
113.2150	2.5	stimuli/Faces/TMWmale25-2neutral.bmp		1.1893	CR
116.9851	2.5	stimuli/Faces/TMWmale34-2neutral.bmp		NaN	NoResp
120.3874	2.5	stimuli/Faces/JWmale79neutral.bmp		1.4187	CR
123.7064	2.5	stimuli/Faces/EMImale24-4neutral.bmp		0.9590	Hit
126.9251	2.5	stimuli/Faces/Wmale_55-3.bmp		1.1172	CR
130.4293	2.5	stimuli/Faces/JWmale71neutral.bmp		1.1472	CR
133.4462	2.5	stimuli/Faces/TSFWmale42neutral.bmp		1.1864	CR
137.0335	2.5	stimuli/Faces/EMBfemale21-4neutral.bmp		1.6004	CR
140.6348	2.5	stimuli/Faces/WBmale31neutral.bmp		0.9415	CR
144.1896	2.5	stimuli/Faces/EMImale23-4neutral.bmp		1.8279	FA
147.2233	2.5	stimuli/Faces/TMWmale22-3neutral.bmp		NaN	NoResp
150.3420	2.5	stimuli/Faces/TSFBmale50neutral.bmp		1.1640	CR
154.1111	2.5	stimuli/Faces/TSFWmale70neutral.bmp		1.8112	Miss
157.9639	2.5	stimuli/Faces/TMWfemale31neutral.bmp		0.8780	CR
161.7165	2.5	stimuli/Faces/EMBmale55neutral.bmp		1.3939	CR
165.2359	2.5	stimuli/Faces/TSFWmale77neutral.bmp		1.7552	Hit
168.3887	2.5	stimuli/Faces/JWfemale68-2neutral.bmp		1.6965	CR
171.8244	2.5	stimuli/Faces/TSFHfemale64neutral.bmp		0.8724	CR
175.0763	2.5	stimuli/Faces/EMImale23-2neutral.bmp		1.3380	Hit
178.5967	2.5	stimuli/Faces/EMWfemale25neutral.bmp		1.0371	CR
181.8647	2.5	stimuli/Faces/WBfemale47neutral.bmp		1.7135	Hit
185.1835	2.5	stimuli/Faces/EMBfemale26neutral.bmp		1.0496	CR
189.1378	2.5	stimuli/Faces/TSFWmale69neutral.bmp		0.9550	Hit
192.3394	2.5	stimuli/Faces/EMWmale21-3neutral.bmp		0.9629	CR
195.5906	2.5	stimuli/Faces/JWfemale39neutral.bmp		1.6436	Miss
198.6592	2.5	stimuli/Faces/TMWmale41neutral.bmp		1.0839	CR
202.4637	2.5	stimuli/Faces/JWmale83neutral.bmp		1.0051	Hit
205.9313	2.5	stimuli/Faces/TSFAmale68neutral.bmp		1.6696	Hit
209.4174	2.5	stimuli/Faces/TMWfemale35neutral.bmp		1.7827	CR
213.1874	2.5	stimuli/Faces/JWfemale44neutral.bmp		1.1137	Hit
217.0565	2.5	stimuli/Faces/TSFWmale87neutral.bmp		1.0366	CR
220.5099	2.5	stimuli/Faces/TMWmale19neutral.bmp		1.0946	CR
224.3949	2.5	stimuli/Faces/TSFWmale74neutral.bmp		1.4836	CR
228.0306	2.5	stimuli/Faces/TSFBfemale65-3neutral.bmp		1.2486	Hit
231.9497	2.5	stimuli/Faces/TMBmale24neutral.bmp		1.2725	CR
235.6190	2.5	stimuli/Faces/JWfemale63-3neutral.bmp		1.1756	Hit
238.7215	2.5	stimuli/Faces/EMWfemale22neutral.bmp		1.3126	Miss
242.5744	2.5	stimuli/Faces/JWfemale65-2neutral.bmp		1.4744	CR
246.0941	2.5	stimuli/Faces/EMBfemale21-3neutral.bmp		1.5446	Hit
249.3302	2.5	stimuli/Faces/TSFBfemale67neutral.bmp		NaN	NoResp
253.3506	2.5	stimuli/Faces/JWfemale77-4neutral.bmp		NaN	NoResp
257.0184	2.5	stimuli/Faces/JWmale69-2neutral.bmp		1.3421	CR
260.3891	2.5	stimuli/Faces/TMWfemale34-2neutral.bmp		NaN	NoResp
263.6558	2.5	stimuli/Faces/EMImale25-2neutral.bmp		2.2134	FA
267.6269	2.5	stimuli/Faces/JWfemale76-4neutral.bmp		1.0244	Miss
271.0784	2.5	stimuli/Faces/EMBfemale22neutral.bmp		NaN	NoResp
274.8813	2.5	stimuli/Faces/TSFBfemale61neutral.bmp		1.0108	CR
278.8841	2.5	stimuli/Faces/TMWfemale36neutral.bmp		NaN	NoResp
282.2548	2.5	stimuli/Faces/EMWmale52neutral.bmp		1.4431	CR
285.9727	2.5	stimuli/Faces/TSFBfemale70-2neutral.bmp		NaN	NoResp
289.6915	2.5	stimuli/Faces/TMBfemale51neutral.bmp		1.0694	CR
292.8773	2.5	stimuli/Faces/TMWmale79neutral.bmp		NaN	NoResp
296.3460	2.5	stimuli/Faces/TSFWfemale34neutral.bmp		0.8771	Hit
299.4480	2.5	stimuli/Faces/TMWmale34neutral.bmp		1.5320	CR
302.7842	2.5	stimuli/Faces/JWmale80neutral.bmp		NaN	NoResp
306.4876	2.5	stimuli/Faces/JWfemale69-2neutral.bmp		NaN	NoResp
309.6226	2.5	stimuli/Faces/EMIfemale25neutral.bmp		1.2303	CR
313.3252	2.5	stimuli/Faces/JWfemale70-4neutral.bmp		NaN	NoResp
317.2450	2.5	stimuli/Faces/JWmale83-2neutral.bmp		NaN	NoResp
320.9818	2.5	stimuli/Faces/JWfemale71-5neutral.bmp		1.2105	CR
324.0181	2.5	stimuli/Faces/JWfemale78-3neutral.bmp		1.2119	CR
327.4018	2.5	stimuli/Faces/EMBfemale49neutral.bmp		0.8802	CR
331.0712	2.5	stimuli/Faces/EMBfemale20-2neutral.bmp		0.9885	Miss
334.9761	2.5	stimuli/Faces/EMWmale32neutral.bmp		1.1840	CR
338.9285	2.5	stimuli/Faces/JWfemale71-2neutral.bmp		NaN	NoResp
342.3293	2.5	stimuli/Faces/TSFBfemale78-2neutral.bmp		1.8396	CR
345.9319	2.5	stimuli/Faces/EMImale21-2neutral.bmp		NaN	NoResp
349.5005	2.5	stimuli/Faces/EMImale23-6neutral.bmp		NaN	NoResp
