onset	duration	face	response	response_time	trial_type
0.6504	2.5	stimuli/Faces/TSFBmale77neutral.bmp		0.9708	Hit
4.5701	2.5	stimuli/Faces/JWfemale72-2neutral.bmp		1.0222	FA
7.6389	2.5	stimuli/Faces/EMWfemale21-5neutral.bmp		0.6815	Hit
10.8079	2.5	stimuli/Faces/EMBfemale33neutral.bmp		1.1091	Hit
14.7606	2.5	stimuli/Faces/JWmale86neutral.bmp		0.9105	CR
18.1312	2.5	stimuli/Faces/JWmale73neutral.bmp		0.7780	Hit
21.8834	2.5	stimuli/Faces/TSFBfemale54neutral.bmp		1.3839	FA
25.1018	2.5	stimuli/Faces/EMIfemale25-2neutral.bmp		0.7015	Hit
29.1054	2.5	stimuli/Faces/TSFBmale50neutral.bmp		1.2940	CR
32.1565	2.5	stimuli/Faces/JWmale76neutral.bmp		1.6159	Hit
35.3422	2.5	stimuli/Faces/TMWfemale35neutral.bmp		2.0511	Miss
38.4447	2.5	stimuli/Faces/TMBmale39neutral.bmp		1.8957	Miss
42.2998	2.5	stimuli/Faces/TMBmale41neutral.bmp		1.1625	CR
45.8330	2.5	stimuli/Faces/JWfemale44neutral.bmp		1.2203	CR
49.2687	2.5	stimuli/Faces/TMWfemale43neutral.bmp		0.8615	Hit
52.5712	2.5	stimuli/Faces/EMWfemale22neutral.bmp		0.6899	Hit
56.1264	2.5	stimuli/Faces/EMImale25neutral.bmp		1.2029	CR
59.7931	2.5	stimuli/Faces/EMBmale55neutral.bmp		2.1088	CR
63.4786	2.5	stimuli/Faces/EMBfemale49neutral.bmp		1.2759	CR
67.0314	2.5	stimuli/Faces/TMWmale43neutral.bmp		1.3060	CR
70.5341	2.5	stimuli/Faces/JWfemale78neutral.bmp		2.1942	Miss
74.5202	2.5	stimuli/Faces/TSFWmale75-3neutral.bmp	NaN	NaN	NoResp
77.6229	2.5	stimuli/Faces/TMWmale41neutral.bmp		1.0643	Hit
81.5920	2.5	stimuli/Faces/TMWmale45neutral.bmp		0.8293	CR
85.3947	2.5	stimuli/Faces/EMWfemale22-3neutral.bmp		0.9226	CR
88.4470	2.5	stimuli/Faces/TMWmale79neutral.bmp		1.1840	Hit
91.7828	2.5	stimuli/Faces/EMWmale20neutral.bmp		0.7955	Hit
95.6522	2.5	stimuli/Faces/TSFWmale74neutral.bmp		1.1738	CR
99.4714	2.5	stimuli/Faces/JWmale67neutral.bmp		1.6177	CR
103.3748	2.5	stimuli/Faces/TMWmale32neutral.bmp		1.5733	CR
107.0946	2.5	stimuli/Faces/TMWfemale40neutral.bmp		1.8535	CR
110.3987	2.5	stimuli/Faces/Wmale_55-2.bmp		1.3145	Miss
113.6151	2.5	stimuli/Faces/JWfemale48neutral.bmp		1.9361	Hit
117.3177	2.5	stimuli/Faces/EMWfemale20-2neutral.bmp		2.0475	CR
120.3872	2.5	stimuli/Faces/TMWfemale36neutral.bmp		0.8659	Hit
123.7390	2.5	stimuli/Faces/JWfemale83neutral.bmp		1.1603	Hit
126.9748	2.5	stimuli/Faces/TMHmale18neutral.bmp		1.7214	Hit
130.1787	2.5	stimuli/Faces/TSFWmale66-2neutral.bmp		2.0946	Miss
133.8295	2.5	stimuli/Faces/JWfemale77neutral.bmp		1.6937	CR
137.2829	2.5	stimuli/Faces/JWfemale65-6neutral.bmp		1.5884	Hit
140.9182	2.5	stimuli/Faces/TSFBfemale65-2neutral.bmp	NaN	NaN	NoResp
144.3536	2.5	stimuli/Faces/TSFHmale65neutral.bmp		0.7225	Hit
148.0729	2.5	stimuli/Faces/TSFBfemale78-2neutral.bmp		1.8519	FA
151.9282	2.5	stimuli/Faces/TMBmale24neutral.bmp		1.1960	CR
155.1118	2.5	stimuli/Faces/JWfemale78-3neutral.bmp		1.6294	Hit
158.4318	2.5	stimuli/Faces/Wmale_65.bmp		1.5551	Miss
161.7997	2.5	stimuli/Faces/TMWmale37-2neutral.bmp		1.2624	Hit
165.3858	2.5	stimuli/Faces/WBmale31neutral.bmp		1.4974	FA
168.5059	2.5	stimuli/Faces/EMIfemale25neutral.bmp		1.7577	Miss
172.1231	2.5	stimuli/Faces/TMBmale49neutral.bmp		1.7967	FA
175.8261	2.5	stimuli/Faces/TMWmale37neutral.bmp		1.1951	CR
179.3955	2.5	stimuli/Faces/TSFBfemale50neutral.bmp	NaN	NaN	NoResp
183.3339	2.5	stimuli/Faces/JWfemale81-3neutral.bmp		2.2363	CR
186.6518	2.5	stimuli/Faces/JWfemale39neutral.bmp		2.0743	Miss
190.3699	2.5	stimuli/Faces/TSFWmale57neutral.bmp		1.1463	CR
193.8888	2.5	stimuli/Faces/TSFWmale54neutral.bmp		1.6422	Miss
197.5094	2.5	stimuli/Faces/JWfemale79neutral.bmp		2.0137	CR
201.0117	2.5	stimuli/Faces/EMImale23-4neutral.bmp		0.9293	Hit
204.7827	2.5	stimuli/Faces/TMBfemale30neutral.bmp		0.9233	CR
208.5671	2.5	stimuli/Faces/JWmale83-2neutral.bmp		0.9769	CR
212.3696	2.5	stimuli/Faces/TMWfemale49-2neutral.bmp		0.9673	CR
215.9718	2.5	stimuli/Faces/JWmale64neutral.bmp		1.3012	CR
219.9746	2.5	stimuli/Faces/EMWfemale18-2neutral.bmp		1.8923	CR
223.6278	2.5	stimuli/Faces/TMBfemale40neutral.bmp		0.8023	CR
227.3964	2.5	stimuli/Faces/EMWmale19neutral.bmp		1.7431	CR
231.3828	2.5	stimuli/Faces/TMBmale28neutral.bmp		1.7532	CR
234.5519	2.5	stimuli/Faces/TMWmale34-2neutral.bmp		1.6364	Miss
237.8046	2.5	stimuli/Faces/JWfemale76-3neutral.bmp	NaN	NaN	NoResp
241.3733	2.5	stimuli/Faces/EMBfemale21-3neutral.bmp		1.7298	CR
245.2258	2.5	stimuli/Faces/TSFBfemale63-2neutral.bmp		1.0933	CR
248.8808	2.5	stimuli/Faces/EMIfemale26neutral.bmp		1.2826	CR
252.3313	2.5	stimuli/Faces/TSFWmale79neutral.bmp		1.3988	Hit
255.8504	2.5	stimuli/Faces/TSFBfemale63neutral.bmp		1.4267	CR
258.9361	2.5	stimuli/Faces/JWfemale65-2neutral.bmp		1.7922	Miss
262.9057	2.5	stimuli/Faces/EMWmale19-3neutral.bmp		0.8213	CR
266.3266	2.5	stimuli/Faces/TSFWmale77neutral.bmp		2.2765	Miss
269.4615	2.5	stimuli/Faces/TSFWfemale52-2neutral.bmp		1.1826	Miss
272.7297	2.5	stimuli/Faces/TMBmale30neutral.bmp		2.1894	Hit
276.1162	2.5	stimuli/Faces/TSFAmale68neutral.bmp		1.1629	Hit
279.5852	2.5	stimuli/Faces/TMWmale33neutral.bmp		1.4997	Miss
282.7371	2.5	stimuli/Faces/JWmale89neutral.bmp		1.3925	Hit
286.5557	2.5	stimuli/Faces/JWmale83neutral.bmp		1.4842	FA
290.4418	2.5	stimuli/Faces/JWmale88neutral.bmp		1.2744	FA
293.4951	2.5	stimuli/Faces/JWfemale64-3neutral.bmp		2.3660	Miss
296.6157	2.5	stimuli/Faces/TSFWmale71-4neutral.bmp		0.8613	Hit
300.0160	2.5	stimuli/Faces/TSFBfemale65neutral.bmp		0.7330	Hit
303.3679	2.5	stimuli/Faces/JWfemale78-6neutral.bmp		1.1481	Hit
306.7710	2.5	stimuli/Faces/JWfemale69-2neutral.bmp		1.1678	Hit
310.6070	2.5	stimuli/Faces/JWfemale73-2neutral.bmp		1.9232	CR
313.8755	2.5	stimuli/Faces/TMBmale21-3neutral.bmp		1.5864	Hit
317.3620	2.5	stimuli/Faces/JWfemale80-4neutral.bmp		1.7170	Miss
321.1137	2.5	stimuli/Faces/JBmale68neutral.bmp		1.8901	CR
324.1339	2.5	stimuli/Faces/TMWmale34-4neutral.bmp		1.1332	Hit
328.0519	2.5	stimuli/Faces/TMBfemale37neutral.bmp		1.5581	CR
331.9884	2.5	stimuli/Faces/JWmale70neutral.bmp		1.3425	CR
335.2246	2.5	stimuli/Faces/TMWfemale37neutral.bmp		2.2568	Hit
339.1289	2.5	stimuli/Faces/TSFWmale68-2neutral.bmp		1.8190	FA
342.4125	2.5	stimuli/Faces/TMWmale22-3neutral.bmp		1.1466	Miss
346.0151	2.5	stimuli/Faces/EMImale24-4neutral.bmp		1.3414	CR
349.4843	2.5	stimuli/Faces/EMBfemale26neutral.bmp		0.8178	Hit
