onset	duration	face	response	response_time	trial_type
1.3502	2.5	stimuli/Faces/EMWmale20neutral.bmp		1.5875	FA
5.0368	2.5	stimuli/Faces/TSFHmale65neutral.bmp		1.0587	CR
8.3559	2.5	stimuli/Faces/TMWmale33neutral.bmp		0.8366	FA
11.5079	2.5	stimuli/Faces/TSFBfemale65neutral.bmp		1.0942	FA
15.4776	2.5	stimuli/Faces/JWfemale42neutral.bmp		1.0047	FA
19.0974	2.5	stimuli/Faces/TMBmale28neutral.bmp		1.7565	FA
22.5327	2.5	stimuli/Faces/TSFWmale63neutral.bmp		1.0981	FA
25.6850	2.5	stimuli/Faces/TMBmale44neutral.bmp		0.7833	Hit
29.1875	2.5	stimuli/Faces/TSFWmale68-2neutral.bmp		1.0790	Hit
33.1909	2.5	stimuli/Faces/TMWfemale36neutral.bmp		0.9956	CR
37.1934	2.5	stimuli/Faces/EMBmale20neutral.bmp		2.0142	CR
40.4289	2.5	stimuli/Faces/TSFBfemale63neutral.bmp		0.7813	Hit
44.3484	2.5	stimuli/Faces/TSFWmale79neutral.bmp		0.8658	FA
47.4004	2.5	stimuli/Faces/TMBfemale30neutral.bmp		0.7926	Hit
50.5701	2.5	stimuli/Faces/TSFBfemale54neutral.bmp		1.5537	Miss
54.0237	2.5	stimuli/Faces/JWfemale82-2neutral.bmp		2.2047	CR
57.4745	2.5	stimuli/Faces/JWfemale70-2neutral.bmp		1.1362	CR
61.1437	2.5	stimuli/Faces/JWmale89neutral.bmp		1.1265	Hit
64.8964	2.5	stimuli/Faces/TSFHfemale64neutral.bmp		1.3732	Hit
68.8493	2.5	stimuli/Faces/JWfemale77-4neutral.bmp		0.7539	Hit
72.0683	2.5	stimuli/Faces/TMBmale24neutral.bmp		2.2976	Hit
75.7209	2.5	stimuli/Faces/EMWmale40neutral.bmp		0.7809	FA
79.2567	2.5	stimuli/Faces/JWfemale69-2neutral.bmp		0.9273	CR
82.5088	2.5	stimuli/Faces/TMWfemale43neutral.bmp		2.4183	FA
85.6622	2.5	stimuli/Faces/TSFWmale70neutral.bmp		0.7235	CR
89.1306	2.5	stimuli/Faces/EMWmale19-3neutral.bmp		0.6045	Miss
92.5000	2.5	stimuli/Faces/EMBfemale22-3neutral.bmp		0.8359	Hit
96.2857	2.5	stimuli/Faces/EMImale25-2neutral.bmp		0.8642	CR
99.7216	2.5	stimuli/Faces/JWfemale65-4neutral.bmp		0.6899	Hit
103.5241	2.5	stimuli/Faces/EMBfemale49neutral.bmp		0.7358	Hit
106.9933	2.5	stimuli/Faces/TMWfemale40neutral.bmp		0.8228	Hit
110.9462	2.5	stimuli/Faces/EMWfemale34neutral.bmp		0.7512	Hit
114.5821	2.5	stimuli/Faces/TMWmale25-2neutral.bmp		0.6446	FA
118.2850	2.5	stimuli/Faces/TMBfemale37neutral.bmp		2.2555	Miss
121.7051	2.5	stimuli/Faces/JWmale69-2neutral.bmp		0.9103	Hit
124.8061	2.5	stimuli/Faces/JWfemale83neutral.bmp		0.8510	Miss
127.9087	2.5	stimuli/Faces/TSFBfemale78-2neutral.bmp		0.9526	Hit
131.3949	2.5	stimuli/Faces/TMWmale43neutral.bmp		1.6286	Hit
135.3143	2.5	stimuli/Faces/JWfemale66neutral.bmp		0.7328	Hit
139.2999	2.5	stimuli/Faces/TMWfemale31neutral.bmp		0.9227	Miss
142.8691	2.5	stimuli/Faces/EMIfemale25-2neutral.bmp		1.1233	Hit
146.2215	2.5	stimuli/Faces/TMWmale34-4neutral.bmp		0.7683	CR
149.8246	2.5	stimuli/Faces/JWfemale71-5neutral.bmp		0.8033	CR
153.7269	2.5	stimuli/Faces/EMBfemale25neutral.bmp		0.8314	CR
157.3627	2.5	stimuli/Faces/TSFWfemale34neutral.bmp		0.9559	FA
161.0989	2.5	stimuli/Faces/JWfemale71-2neutral.bmp		0.9783	Hit
164.6515	2.5	stimuli/Faces/TSFWmale69neutral.bmp		0.7293	CR
168.4541	2.5	stimuli/Faces/JWfemale78neutral.bmp		0.7545	Hit
172.2741	2.5	stimuli/Faces/TMBfemale40neutral.bmp		0.6559	CR
176.1435	2.5	stimuli/Faces/JWfemale65-2neutral.bmp		0.7379	CR
180.1124	2.5	stimuli/Faces/EMWfemale21-5neutral.bmp		1.1428	Hit
183.4316	2.5	stimuli/Faces/TMBmale21-3neutral.bmp		0.9732	Hit
186.7841	2.5	stimuli/Faces/JWmale65neutral.bmp		1.2418	CR
190.0535	2.5	stimuli/Faces/TMHmale18neutral.bmp		1.2149	CR
193.5555	2.5	stimuli/Faces/EMWfemale30neutral.bmp		1.2281	Hit
197.4249	2.5	stimuli/Faces/TMBfemale51neutral.bmp		0.7340	Hit
201.2611	2.5	stimuli/Faces/JWmale71neutral.bmp		1.6716	CR
204.5466	2.5	stimuli/Faces/TSFWmale46neutral.bmp		1.3773	Hit
208.1999	2.5	stimuli/Faces/JWmale88neutral.bmp		0.9127	Hit
211.3189	2.5	stimuli/Faces/TMBfemale57neutral.bmp		0.8993	FA
214.8876	2.5	stimuli/Faces/JWmale67neutral.bmp		0.6542	CR
218.4734	2.5	stimuli/Faces/JWmale79neutral.bmp		1.0502	Hit
221.5090	2.5	stimuli/Faces/EMBfemale22-4neutral.bmp		0.9366	CR
224.5612	2.5	stimuli/Faces/TSFWfemale52-2neutral.bmp		1.1351	Miss
227.8975	2.5	stimuli/Faces/EMBfemale22-2neutral.bmp		1.2532	CR
231.0324	2.5	stimuli/Faces/TSFWmale67-2neutral.bmp		1.1325	CR
234.6351	2.5	stimuli/Faces/JWfemale81-3neutral.bmp		1.1538	FA
238.4877	2.5	stimuli/Faces/EMWfemale21-3neutral.bmp		0.7280	CR
242.2572	2.5	stimuli/Faces/EMBfemale21-3neutral.bmp		0.6820	CR
245.8097	2.5	stimuli/Faces/TMWfemale34-2neutral.bmp		0.9419	Hit
248.8793	2.5	stimuli/Faces/JWfemale77neutral.bmp		0.7104	Miss
252.7652	2.5	stimuli/Faces/EMWfemale18-2neutral.bmp		0.6540	CR
255.9178	2.5	stimuli/Faces/WBfemale47neutral.bmp		1.7110	CR
259.6697	2.5	stimuli/Faces/TSFWmale42neutral.bmp		0.5791	CR
263.0555	2.5	stimuli/Faces/TMBmale21neutral.bmp		1.0423	Miss
266.3579	2.5	stimuli/Faces/EMBfemale21neutral.bmp		0.8138	Hit
269.5441	2.5	stimuli/Faces/JWfemale65-6neutral.bmp		1.2809	Miss
272.6123	2.5	stimuli/Faces/JWfemale73-2neutral.bmp		0.8862	CR
275.6646	2.5	stimuli/Faces/TMBmale41neutral.bmp		0.9534	CR
279.2671	2.5	stimuli/Faces/JWmale70neutral.bmp		1.5565	Miss
282.4694	2.5	stimuli/Faces/EMWmale52neutral.bmp		1.3425	Miss
285.7392	2.5	stimuli/Faces/EMBmale55neutral.bmp		1.8524	Miss
289.5079	2.5	stimuli/Faces/EMImale21-2neutral.bmp		1.0099	Hit
292.7772	2.5	stimuli/Faces/JWfemale79-4neutral.bmp		1.0538	CR
296.0965	2.5	stimuli/Faces/TMWmale37neutral.bmp		1.1428	Hit
299.1487	2.5	stimuli/Faces/JWfemale80-4neutral.bmp		1.3210	Miss
302.8674	2.5	stimuli/Faces/EMIfemale25neutral.bmp		1.9138	Miss
306.2707	2.5	stimuli/Faces/JWfemale37neutral.bmp		1.4965	Miss
309.6731	2.5	stimuli/Faces/TSFBfemale70-2neutral.bmp		1.8958	CR
313.0580	2.5	stimuli/Faces/TMBmale30neutral.bmp		0.7606	CR
317.0784	2.5	stimuli/Faces/EMIfemale26neutral.bmp		1.1541	Hit
320.5972	2.5	stimuli/Faces/TSFBfemale61neutral.bmp		0.9312	CR
324.4829	2.5	stimuli/Faces/TMWmale34-3neutral.bmp		0.8016	Hit
327.9527	2.5	stimuli/Faces/JWfemale72-2neutral.bmp		1.8001	CR
331.1710	2.5	stimuli/Faces/TSFAmale68neutral.bmp		1.4089	Hit
335.1072	2.5	stimuli/Faces/TMWmale71neutral.bmp		0.9008	CR
338.7931	2.5	stimuli/Faces/JWfemale50neutral.bmp		1.1242	CR
342.6121	2.5	stimuli/Faces/JWfemale63-3neutral.bmp		1.0767	CR
345.8321	2.5	stimuli/Faces/JWfemale64-3neutral.bmp		0.5900	Hit
349.5509	2.5	stimuli/Faces/TSFBmale50neutral.bmp		0.8900	FA
