onset	duration	face	response	response_time	trial_type
0.9675	2.5	stimuli/Faces/JWmale89neutral.bmp		1.1330	FA
4.2865	2.5	stimuli/Faces/TMWmale79neutral.bmp		1.2215	FA
8.0394	2.5	stimuli/Faces/TSFHfemale64neutral.bmp		0.9864	Hit
11.4110	2.5	stimuli/Faces/EMWfemale30neutral.bmp		1.0862	Miss
14.4771	2.5	stimuli/Faces/JWfemale71-2neutral.bmp		0.8757	Hit
17.6466	2.5	stimuli/Faces/TSFBfemale65-3neutral.bmp		0.6044	Hit
21.5657	2.5	stimuli/Faces/TMWfemale37neutral.bmp		0.5360	Hit
25.0848	2.5	stimuli/Faces/TMBmale44neutral.bmp		0.9689	FA
28.8901	2.5	stimuli/Faces/JWmale83-2neutral.bmp		0.8648	FA
32.2234	2.5	stimuli/Faces/TSFBfemale74-2neutral.bmp		0.8877	CR
36.0265	2.5	stimuli/Faces/TMWmale25-2neutral.bmp		0.6425	Hit
39.9956	2.5	stimuli/Faces/EMBfemale21-2neutral.bmp		0.6463	Hit
43.6341	2.5	stimuli/Faces/TSFWmale67-2neutral.bmp		1.2257	CR
46.7330	2.5	stimuli/Faces/TSFBfemale65neutral.bmp		0.7086	Hit
49.9214	2.5	stimuli/Faces/TSFWmale69neutral.bmp		0.7391	Hit
53.5221	2.5	stimuli/Faces/TSFBfemale50neutral.bmp		1.2807	CR
57.1091	2.5	stimuli/Faces/EMImale25neutral.bmp		0.8476	FA
60.7430	2.5	stimuli/Faces/Wmale_55-3.bmp		0.8672	CR
64.0963	2.5	stimuli/Faces/JWfemale77neutral.bmp		0.7316	FA
67.8657	2.5	stimuli/Faces/TMWfemale31neutral.bmp		0.9449	Hit
70.9010	2.5	stimuli/Faces/EMBmale20neutral.bmp		0.9907	Miss
74.9040	2.5	stimuli/Faces/JWfemale76-4neutral.bmp		0.9329	CR
78.1403	2.5	stimuli/Faces/TSFWmale88neutral.bmp		1.1958	FA
81.7423	2.5	stimuli/Faces/TMWmale22-3neutral.bmp		0.7307	Hit
85.6454	2.5	stimuli/Faces/TMBfemale33neutral.bmp		1.0532	FA
89.3976	2.5	stimuli/Faces/EMWfemale21-5neutral.bmp		0.5956	Hit
93.1167	2.5	stimuli/Faces/TSFBfemale62neutral.bmp		0.7941	FA
96.3870	2.5	stimuli/Faces/JWmale80neutral.bmp		0.7820	FA
100.2384	2.5	stimuli/Faces/JWfemale69-2neutral.bmp		1.2193	CR
103.8085	2.5	stimuli/Faces/EMBfemale21-3neutral.bmp		0.8738	CR
107.7608	2.5	stimuli/Faces/TSFBmale50neutral.bmp		0.8830	Hit
110.8127	2.5	stimuli/Faces/TSFBfemale54neutral.bmp		0.6175	FA
114.2499	2.5	stimuli/Faces/TMBfemale41neutral.bmp		1.1348	FA
118.1183	2.5	stimuli/Faces/EMBfemale22-2neutral.bmp		0.9194	Hit
121.9050	2.5	stimuli/Faces/EMHmale22neutral.bmp		0.7021	CR
124.9738	2.5	stimuli/Faces/TSFWmale68-2neutral.bmp		0.8896	FA
128.1941	2.5	stimuli/Faces/EMImale25-2neutral.bmp		0.9760	CR
131.3121	2.5	stimuli/Faces/EMBfemale26neutral.bmp		0.9663	CR
134.6299	2.5	stimuli/Faces/EMIfemale25neutral.bmp		0.5701	FA
138.1832	2.5	stimuli/Faces/JWmale69-2neutral.bmp		0.7410	FA
141.8867	2.5	stimuli/Faces/JWfemale70-2neutral.bmp		1.0180	Hit
145.0375	2.5	stimuli/Faces/JWfemale81-3neutral.bmp		0.8928	Hit
148.9749	2.5	stimuli/Faces/TSFBfemale63neutral.bmp		1.2531	Miss
152.0097	2.5	stimuli/Faces/TSFWmale74neutral.bmp		0.7725	FA
156.0120	2.5	stimuli/Faces/EMWmale20neutral.bmp		1.3517	FA
159.8319	2.5	stimuli/Faces/TMWfemale36neutral.bmp		1.2588	FA
163.5007	2.5	stimuli/Faces/TMBmale39neutral.bmp		0.7478	Hit
166.9879	2.5	stimuli/Faces/JWfemale66neutral.bmp		1.1847	Hit
170.5058	2.5	stimuli/Faces/TSFBfemale61neutral.bmp		1.3235	FA
174.1609	2.5	stimuli/Faces/JWfemale65-4neutral.bmp		0.7449	Hit
177.7278	2.5	stimuli/Faces/JWfemale77-4neutral.bmp		1.1522	CR
180.9798	2.5	stimuli/Faces/TSFWmale37neutral.bmp		2.0674	Miss
184.1821	2.5	stimuli/Faces/EMImale23-4neutral.bmp		0.9227	CR
188.0528	2.5	stimuli/Faces/JWfemale42neutral.bmp		0.9774	CR
191.4221	2.5	stimuli/Faces/EMBfemale21neutral.bmp		1.0052	Hit
194.9259	2.5	stimuli/Faces/JWmale88neutral.bmp		1.0501	Hit
198.0419	2.5	stimuli/Faces/Wmale_55.bmp		0.6785	Hit
201.3112	2.5	stimuli/Faces/TSFWmale70neutral.bmp		1.1880	Hit
204.4131	2.5	stimuli/Faces/JWmale83neutral.bmp		0.8521	Hit
208.3991	2.5	stimuli/Faces/WBmale31neutral.bmp		0.6751	Hit
212.0187	2.5	stimuli/Faces/TSFWmale71neutral.bmp		0.6053	FA
215.1710	2.5	stimuli/Faces/TMBmale21-3neutral.bmp		0.9147	Hit
218.7235	2.5	stimuli/Faces/JWmale64neutral.bmp		0.7787	Hit
222.1261	2.5	stimuli/Faces/EMIfemale25-2neutral.bmp		0.9036	FA
225.8457	2.5	stimuli/Faces/TMWmale20-4neutral.bmp		1.1124	FA
229.5481	2.5	stimuli/Faces/EMIfemale19neutral.bmp		1.0676	Hit
232.9027	2.5	stimuli/Faces/JWfemale39neutral.bmp		0.6924	Hit
236.7360	2.5	stimuli/Faces/JWmale66neutral.bmp		1.3692	Hit
240.1387	2.5	stimuli/Faces/TMWmale71neutral.bmp		0.9509	Hit
243.6418	2.5	stimuli/Faces/TMBmale49neutral.bmp		1.2792	Hit
247.2603	2.5	stimuli/Faces/TMWmale34-2neutral.bmp		0.8524	Hit
250.5627	2.5	stimuli/Faces/JWfemale48neutral.bmp		1.5191	CR
253.7653	2.5	stimuli/Faces/TSFWmale79neutral.bmp		1.1105	CR
257.0177	2.5	stimuli/Faces/JWfemale60neutral.bmp		0.8155	Hit
260.4203	2.5	stimuli/Faces/EMWfemale22neutral.bmp		1.3632	CR
263.7229	2.5	stimuli/Faces/TSFWmale71-4neutral.bmp		0.6512	Hit
267.3917	2.5	stimuli/Faces/EMWmale52neutral.bmp		0.9664	CR
271.3452	2.5	stimuli/Faces/JWfemale71-5neutral.bmp		1.4785	Hit
274.7495	2.5	stimuli/Faces/JWfemale78neutral.bmp		1.5559	FA
278.7165	2.5	stimuli/Faces/TMBfemale37neutral.bmp		1.0614	Hit
282.1856	2.5	stimuli/Faces/JWfemale74-2neutral.bmp		1.1791	CR
286.0725	2.5	stimuli/Faces/TMWmale34-4neutral.bmp		1.3817	Hit
289.5246	2.5	stimuli/Faces/EMBfemale22neutral.bmp		1.1369	Hit
292.6599	2.5	stimuli/Faces/TMBmale18neutral.bmp		0.7564	Hit
296.3459	2.5	stimuli/Faces/EMBmale55neutral.bmp		0.9786	CR
300.1153	2.5	stimuli/Faces/TSFWmale42neutral.bmp		NaN	NoResp
303.5523	2.5	stimuli/Faces/TSFWmale54neutral.bmp		0.6881	Hit
307.0880	2.5	stimuli/Faces/EMIfemale26neutral.bmp		0.7543	Hit
310.3558	2.5	stimuli/Faces/JWmale73neutral.bmp		0.9393	CR
314.1756	2.5	stimuli/Faces/JWfemale44neutral.bmp		1.1260	Miss
317.5621	2.5	stimuli/Faces/TMWfemale49-2neutral.bmp		0.8228	CR
321.4820	2.5	stimuli/Faces/TMWmale37-2neutral.bmp		1.3358	CR
324.5659	2.5	stimuli/Faces/EMBfemale20neutral.bmp		0.9237	CR
327.7348	2.5	stimuli/Faces/TMWfemale43neutral.bmp		0.8929	Miss
331.7398	2.5	stimuli/Faces/JWfemale78-6neutral.bmp		0.9374	CR
335.6411	2.5	stimuli/Faces/JWfemale37neutral.bmp		1.2738	Hit
339.3779	2.5	stimuli/Faces/TSFBfemale63-2neutral.bmp		1.2944	CR
343.2301	2.5	stimuli/Faces/TMWmale33neutral.bmp		NaN	NoResp
346.2814	2.5	stimuli/Faces/TSFWmale46neutral.bmp		0.9191	Hit
349.5006	2.5	stimuli/Faces/TMWmale34neutral.bmp		1.4352	CR
