onset	duration	word	response	response_time	trial_type
0.6507	2.5	Garden		2.1979	Subsequent_Hit
4.4035	2.5	Sleigh		1.2753	Subsequent_Hit
7.9560	2.5	Spoon		0.9275	Subsequent_Hit
11.3601	2.5	Sheep		0.8274	Subsequent_Hit
15.3448	2.5	Chalk		0.9447	Subsequent_Hit
19.0131	2.5	Sheet		0.9625	Subsequent_Hit
22.3177	2.5	Cigarette		2.3779	Subsequent_Hit
26.0357	2.5	Pants		0.9656	Subsequent_Hit
29.9052	2.5	Stick		1.0423	Subsequent_Hit
33.5247	2.5	Pill		1.2449	Subsequent_Hit
37.0935	2.5	Honey		0.7008	Subsequent_Miss
40.5976	2.5	Pencil		0.7713	Subsequent_Hit
43.8153	2.5	Sun		0.7932	Subsequent_Hit
47.4513	2.5	Pickle		0.7681	Subsequent_Hit
51.2372	2.5	Door		0.7823	Subsequent_Hit
55.1901	2.5	Kettle		0.9794	Subsequent_Hit
58.2922	2.5	Lemon		0.7901	Subsequent_Hit
61.9951	2.5	Cotton		0.7853	Subsequent_Hit
65.2305	2.5	Beef		1.0571	Subsequent_Hit
68.3662	2.5	Shirt		0.8283	Subsequent_Hit
71.9356	2.5	Mountain		0.8918	Subsequent_Hit
75.1379	2.5	Collar		1.0676	Subsequent_Miss
78.5906	2.5	Tooth		0.8879	Subsequent_Hit
82.0426	2.5	Bread		0.6887	Subsequent_Hit
85.0948	2.5	Peach		0.8999	Subsequent_Hit
88.5321	2.5	Skunk		0.7565	Subsequent_Hit
92.5337	2.5	Straw		0.8587	Subsequent_Hit
95.7861	2.5	Coffee		1.2240	Subsequent_Hit
98.9884	2.5	Diamond		0.8440	Subsequent_Hit
102.2907	2.5	Whale		0.8027	Subsequent_Hit
105.3429	2.5	Brick		0.9063	Subsequent_Hit
108.7802	2.5	Mirror		1.0862	Subsequent_Hit
111.8811	2.5	Bed		0.8345	Subsequent_Hit
115.0662	2.5	Rum		0.9143	Subsequent_Hit
118.3526	2.5	Rug		0.9329	Subsequent_Hit
122.3216	2.5	Film		0.7218	Subsequent_Hit
125.6742	2.5	Blanket		0.9410	Subsequent_Hit
129.2767	2.5	Elbow		1.3747	Subsequent_Miss
132.2959	2.5	Wood		1.3103	Subsequent_Hit
135.6316	2.5	Weed		0.9846	Subsequent_Hit
139.5342	2.5	Cucumber		0.8202	Subsequent_Miss
143.4204	2.5	Eye		0.6779	Subsequent_Hit
146.4572	2.5	Harbour		1.2762	Subsequent_Miss
149.9585	2.5	Frog		1.1750	Subsequent_Hit
153.8780	2.5	Bath		0.6914	Subsequent_Hit
156.9469	2.5	Boat		1.1483	Subsequent_Hit
160.1992	2.5	Duck		1.6162	Subsequent_Hit
163.8684	2.5	Puddle		1.2911	Subsequent_Hit
167.6379	2.5	Drum		1.9714	Subsequent_Miss
171.3571	2.5	Cookie		1.0670	Subsequent_Hit
175.2766	2.5	Cream		0.7571	Subsequent_Hit
178.6971	2.5	Button		1.1172	Subsequent_Hit
182.0983	2.5	Cake		1.0331	Subsequent_Miss
185.9509	2.5	Thumb		0.9693	Subsequent_Hit
189.5537	2.5	Plum		0.6955	Subsequent_Hit
192.8238	2.5	Window		0.7214	Subsequent_Hit
196.7920	2.5	Onion		1.3794	Subsequent_Hit
200.1614	2.5	Potato		0.6110	Subsequent_Hit
203.9307	2.5	Pig		2.2576	Subsequent_Hit
207.5832	2.5	Clothes		0.7559	Subsequent_Hit
211.4525	2.5	Nose		0.6857	Subsequent_Hit
214.5884	2.5	Clown		0.8648	Subsequent_Hit
217.9404	2.5	Jeep		0.8938	Subsequent_Hit
221.6766	2.5	Tiger		1.2564	Subsequent_Hit
225.6127	2.5	Lemonade		0.7105	Subsequent_Hit
229.4157	2.5	Tea		1.0407	Subsequent_Hit
232.9346	2.5	Vegetable		0.6515	Subsequent_Hit
236.3385	2.5	Orange		0.7087	Subsequent_Hit
239.7227	2.5	Rocket		1.5436	Subsequent_Hit
243.7258	2.5	Strawberry		1.2454	Subsequent_Hit
247.3450	2.5	Butter		1.7032	Subsequent_Miss
250.5140	2.5	Skin		0.6845	Subsequent_Hit
254.0682	2.5	Cereal		0.8906	Subsequent_Hit
258.0861	2.5	Car		0.5819	Subsequent_Hit
261.7886	2.5	Handkerchief		1.4056	Subsequent_Hit
265.0235	2.5	Typewriter		0.7969	Subsequent_Hit
268.0599	2.5	Pear		0.6292	Subsequent_Hit
271.2139	2.5	Painting		0.6923	Subsequent_Hit
275.1653	2.5	Glove		1.0768	Subsequent_Hit
278.4343	2.5	Bandage		1.1696	Subsequent_Hit
281.5527	2.5	Umbrella		0.6354	Subsequent_Hit
285.3890	2.5	Earthworm		2.3906	Subsequent_Hit
288.6916	2.5	Lion		0.9085	Subsequent_Miss
292.0784	2.5	Carrot	NaN	NaN	Subsequent_Hit
295.1796	2.5	Hat		1.1605	Subsequent_Hit
298.9826	2.5	Heart		1.2275	Subsequent_Hit
302.6349	2.5	Tent		0.8814	Subsequent_Hit
305.6872	2.5	Pond		1.0499	Subsequent_Hit
309.0384	2.5	Sand		1.5608	Subsequent_Hit
312.5750	2.5	Egg		0.7352	Subsequent_Hit
316.1111	2.5	Mattress		0.9629	Subsequent_Hit
320.0141	2.5	Lamb		1.0007	Subsequent_Miss
323.7666	2.5	Glass		1.0775	Subsequent_Hit
327.4362	2.5	Birch		1.3768	Subsequent_Hit
331.2554	2.5	Jacket		1.1967	Subsequent_Hit
335.0912	2.5	Seed		0.8198	Subsequent_Hit
338.5775	2.5	Snow		0.7585	Subsequent_Hit
342.3802	2.5	Bean		1.2738	Subsequent_Hit
345.8656	2.5	Tomato		0.7553	Subsequent_Miss
349.0171	2.5	Steak		0.8408	Subsequent_Hit
