onset	duration	face	response	response_time	trial_type
0.5668	2.5	stimuli/Faces/JWfemale78-6neutral.bmp		1.0006	Subsequent_Miss
4.5366	2.5	stimuli/Faces/TSFWmale70neutral.bmp		0.7518	Subsequent_Hit
8.1729	2.5	stimuli/Faces/EMHmale22neutral.bmp		1.1515	Subsequent_Hit
11.2607	2.5	stimuli/Faces/TSFBfemale67neutral.bmp		1.2517	Subsequent_Hit
14.5772	2.5	stimuli/Faces/EMImale23-6neutral.bmp		0.8762	Subsequent_Hit
18.1301	2.5	stimuli/Faces/TMBmale49neutral.bmp		0.7965	Subsequent_Hit
21.1840	2.5	stimuli/Faces/JWfemale82-2neutral.bmp		1.0228	Subsequent_Hit
24.3837	2.5	stimuli/Faces/TSFWmale79-3neutral.bmp		1.2467	Subsequent_Miss
27.6372	2.5	stimuli/Faces/TMWmale25-2neutral.bmp		1.0062	Subsequent_Miss
31.6565	2.5	stimuli/Faces/EMImale24-4neutral.bmp		1.0168	Subsequent_Hit
35.4427	2.5	stimuli/Faces/EMWfemale22neutral.bmp		1.2657	Subsequent_Miss
38.5778	2.5	stimuli/Faces/TMBfemale33-2neutral.bmp		1.0885	Subsequent_Miss
42.0803	2.5	stimuli/Faces/TMBfemale37neutral.bmp		1.0601	Subsequent_Hit
45.7822	2.5	stimuli/Faces/EMBfemale22-4neutral.bmp		1.0835	Subsequent_Hit
48.8855	2.5	stimuli/Faces/TSFBfemale78-2neutral.bmp		1.1251	Subsequent_NoResp
52.8212	2.5	stimuli/Faces/TMBmale21neutral.bmp		0.8452	Subsequent_Hit
56.6260	2.5	stimuli/Faces/TSFBfemale63neutral.bmp		1.5264	Subsequent_Miss
60.1433	2.5	stimuli/Faces/JWmale69-2neutral.bmp		1.2431	Subsequent_Hit
63.9627	2.5	stimuli/Faces/TSFBfemale65-2neutral.bmp		0.9676	Subsequent_Miss
67.2158	2.5	stimuli/Faces/JWmale70neutral.bmp		0.9377	Subsequent_Hit
70.3689	2.5	stimuli/Faces/EMImale24-2neutral.bmp		1.2135	Subsequent_Hit
73.6197	2.5	stimuli/Faces/JWfemale60neutral.bmp		1.5329	Subsequent_Miss
77.5413	2.5	stimuli/Faces/TMWfemale43neutral.bmp		1.3411	Subsequent_Miss
80.8583	2.5	stimuli/Faces/JWmale66neutral.bmp		1.3256	Subsequent_Hit
84.2105	2.5	stimuli/Faces/TSFBfemale61neutral.bmp		0.7577	Subsequent_Hit
87.4128	2.5	stimuli/Faces/EMBfemale20neutral.bmp		1.9234	Subsequent_NoResp
91.2850	2.5	stimuli/Faces/TSFBfemale62neutral.bmp		1.0854	Subsequent_Miss
95.1350	2.5	stimuli/Faces/TSFWmale54neutral.bmp		1.1494	Subsequent_Hit
98.7542	2.5	stimuli/Faces/TMWmale37neutral.bmp		1.8402	Subsequent_Hit
101.8904	2.5	stimuli/Faces/TMHmale18neutral.bmp		0.9698	Subsequent_Miss
105.4597	2.5	stimuli/Faces/TMWfemale40neutral.bmp		1.1119	Subsequent_Miss
109.0133	2.5	stimuli/Faces/TMWmale34neutral.bmp		1.3712	Subsequent_Hit
112.9169	2.5	stimuli/Faces/EMBfemale20-2neutral.bmp		1.0786	Subsequent_NoResp
116.4353	2.5	stimuli/Faces/EMWmale33neutral.bmp		1.1371	Subsequent_Miss
120.1545	2.5	stimuli/Faces/JWmale89neutral.bmp		0.8299	Subsequent_Hit
123.7551	2.5	stimuli/Faces/JWfemale83neutral.bmp		1.3494	Subsequent_Hit
127.2747	2.5	stimuli/Faces/JWfemale69-2neutral.bmp		1.0387	Subsequent_Miss
131.1442	2.5	stimuli/Faces/EMWmale40neutral.bmp		0.8002	Subsequent_Miss
135.1152	2.5	stimuli/Faces/TSFWmale71neutral.bmp		2.0225	Subsequent_Miss
138.9192	2.5	stimuli/Faces/JWfemale80-4neutral.bmp		1.7281	Subsequent_Miss
142.2526	2.5	stimuli/Faces/TMBfemale40neutral.bmp		1.7257	Subsequent_Miss
145.5543	2.5	stimuli/Faces/TMWmale22-3neutral.bmp		1.5266	Subsequent_Hit
149.4080	2.5	stimuli/Faces/TSFHmale65neutral.bmp		0.9413	Subsequent_Hit
152.8772	2.5	stimuli/Faces/JWfemale76-3neutral.bmp		1.4461	Subsequent_Hit
156.8626	2.5	stimuli/Faces/EMBfemale29neutral.bmp		1.3196	Subsequent_Miss
159.9670	2.5	stimuli/Faces/JWmale81-2neutral.bmp		1.5052	Subsequent_Hit
163.6348	2.5	stimuli/Faces/EMBfemale33neutral.bmp		1.5077	Subsequent_Miss
167.0212	2.5	stimuli/Faces/TSFWmale42neutral.bmp		1.2054	Subsequent_Miss
170.4745	2.5	stimuli/Faces/WBmale31neutral.bmp		1.7759	Subsequent_Hit
174.1418	2.5	stimuli/Faces/TSFWmale71-4neutral.bmp		1.5465	Subsequent_Miss
177.8276	2.5	stimuli/Faces/EMIfemale25-2neutral.bmp		2.0948	Subsequent_Hit
181.7312	2.5	stimuli/Faces/EMBfemale25neutral.bmp		0.9530	Subsequent_Miss
185.4998	2.5	stimuli/Faces/TSFWmale66-2neutral.bmp		2.1926	Subsequent_Miss
188.5523	2.5	stimuli/Faces/EMWfemale20-2neutral.bmp		0.8280	Subsequent_Miss
192.0379	2.5	stimuli/Faces/TMWmale79neutral.bmp		1.1864	Subsequent_Hit
195.7583	2.5	stimuli/Faces/JWfemale78neutral.bmp		0.8988	Subsequent_Hit
199.1937	2.5	stimuli/Faces/JWfemale65-2neutral.bmp		2.4136	Subsequent_Miss
203.0624	2.5	stimuli/Faces/TMBfemale30neutral.bmp		1.4989	Subsequent_Hit
206.7652	2.5	stimuli/Faces/TMWmale30neutral.bmp		0.9611	Subsequent_Hit
209.9509	2.5	stimuli/Faces/TMWmale33neutral.bmp		0.7394	Subsequent_Miss
213.5199	2.5	stimuli/Faces/TSFWmale87neutral.bmp		1.8414	Subsequent_Miss
217.0064	2.5	stimuli/Faces/TMBfemale33neutral.bmp		1.3328	Subsequent_Hit
220.1097	2.5	stimuli/Faces/TMWfemale37neutral.bmp		1.3856	Subsequent_Hit
223.5271	2.5	stimuli/Faces/TSFWmale37neutral.bmp		1.1693	Subsequent_Miss
226.9297	2.5	stimuli/Faces/TMBfemale41neutral.bmp		1.1156	Subsequent_Miss
229.9984	2.5	stimuli/Faces/TSFWmale67-2neutral.bmp		1.2858	Subsequent_Hit
233.9679	2.5	stimuli/Faces/EMImale23-2neutral.bmp		1.8834	Subsequent_Hit
237.7040	2.5	stimuli/Faces/TSFHfemale64neutral.bmp		1.0752	Subsequent_Miss
240.9229	2.5	stimuli/Faces/TMBmale41neutral.bmp		0.9843	Subsequent_Hit
244.6943	2.5	stimuli/Faces/TMWmale37-2neutral.bmp		1.0610	Subsequent_Hit
248.0781	2.5	stimuli/Faces/TMWmale43neutral.bmp		0.9994	Subsequent_Miss
251.7474	2.5	stimuli/Faces/JWmale86neutral.bmp		1.4399	Subsequent_Hit
254.9183	2.5	stimuli/Faces/TSFBfemale65neutral.bmp		1.4829	Subsequent_Hit
258.5206	2.5	stimuli/Faces/EMBfemale21neutral.bmp		0.9417	Subsequent_Miss
261.6719	2.5	stimuli/Faces/EMWfemale24-2neutral.bmp		1.7575	Subsequent_Hit
265.2079	2.5	stimuli/Faces/TMWmale45neutral.bmp		0.9184	Subsequent_Miss
268.4260	2.5	stimuli/Faces/Wmale_55-3.bmp		0.7491	Subsequent_Miss
272.0813	2.5	stimuli/Faces/JWfemale50neutral.bmp		0.7978	Subsequent_Miss
275.6672	2.5	stimuli/Faces/TMBfemale51neutral.bmp		1.5241	Subsequent_Miss
279.4351	2.5	stimuli/Faces/TMBfemale57neutral.bmp		0.8251	Subsequent_Miss
283.0699	2.5	stimuli/Faces/JWfemale65-6neutral.bmp	NaN	NaN	Subsequent_Miss
286.3063	2.5	stimuli/Faces/EMWfemale18-2neutral.bmp		1.1748	Subsequent_Miss
290.3266	2.5	stimuli/Faces/EMWmale19neutral.bmp		0.8875	Subsequent_Miss
294.3280	2.5	stimuli/Faces/TSFWmale46neutral.bmp		1.0791	Subsequent_Hit
297.6804	2.5	stimuli/Faces/JWmale64neutral.bmp		0.8819	Subsequent_Miss
301.0523	2.5	stimuli/Faces/TMWmale32neutral.bmp		1.1159	Subsequent_Hit
304.6714	2.5	stimuli/Faces/EMBfemale21-4neutral.bmp		1.2599	Subsequent_Miss
308.0718	2.5	stimuli/Faces/JWfemale79-4neutral.bmp		1.6964	Subsequent_Miss
311.8570	2.5	stimuli/Faces/TMWmale34-3neutral.bmp		1.4955	Subsequent_Hit
315.1096	2.5	stimuli/Faces/EMWmale21-3neutral.bmp		0.9421	Subsequent_Miss
318.4134	2.5	stimuli/Faces/TMWfemale36neutral.bmp		1.3688	Subsequent_Miss
321.8168	2.5	stimuli/Faces/JWmale67neutral.bmp		1.9373	Subsequent_Miss
325.1172	2.5	stimuli/Faces/JWfemale77-4neutral.bmp		1.4428	Subsequent_Miss
328.5552	2.5	stimuli/Faces/JWfemale70-4neutral.bmp		0.8250	Subsequent_Miss
331.5882	2.5	stimuli/Faces/TMWmale19neutral.bmp		1.7140	Subsequent_Miss
335.4745	2.5	stimuli/Faces/TSFBfemale70-2neutral.bmp		1.1407	Subsequent_Miss
338.4930	2.5	stimuli/Faces/EMWmale20neutral.bmp		1.4883	Subsequent_Miss
341.6642	2.5	stimuli/Faces/TSFWmale63neutral.bmp		1.2661	Subsequent_Miss
345.6149	2.5	stimuli/Faces/JWfemale63-3neutral.bmp		1.3324	Subsequent_Miss
349.5513	2.5	stimuli/Faces/EMBmale20neutral.bmp		0.8509	Subsequent_Miss
