onset	duration	face	response	response_time	trial_type
0.6176	2.5	stimuli/Faces/JWfemale73-2neutral.bmp	NaN	1.5533	Hit
3.7865	2.5	stimuli/Faces/TSFWmale75-3neutral.bmp		1.4685	FA
7.3393	2.5	stimuli/Faces/TMWmale34neutral.bmp		1.4663	FA
10.6747	2.5	stimuli/Faces/TSFBfemale63-2neutral.bmp		1.0597	CR
13.9108	2.5	stimuli/Faces/EMWfemale22-3neutral.bmp		0.8214	Hit
17.2304	2.5	stimuli/Faces/Wmale_55-2.bmp		1.5945	Hit
20.9826	2.5	stimuli/Faces/TSFWmale66-2neutral.bmp		1.3975	FA
24.2512	2.5	stimuli/Faces/EMWfemale30neutral.bmp		0.8454	Miss
27.6201	2.5	stimuli/Faces/JWfemale67-4neutral.bmp		0.9756	Hit
31.5418	2.5	stimuli/Faces/TMBmale21neutral.bmp		1.5697	FA
35.4927	2.5	stimuli/Faces/TSFWmale70neutral.bmp		0.9488	CR
38.9307	2.5	stimuli/Faces/TSFBfemale54neutral.bmp		1.1402	Hit
42.9319	2.5	stimuli/Faces/EMImale24-4neutral.bmp		1.9915	FA
46.4014	2.5	stimuli/Faces/TSFWfemale34neutral.bmp		0.8930	CR
49.5537	2.5	stimuli/Faces/EMBfemale21-3neutral.bmp		0.9009	Hit
53.4080	2.5	stimuli/Faces/TSFHmale65neutral.bmp		0.8294	CR
57.3084	2.5	stimuli/Faces/EMBfemale25neutral.bmp		1.7403	Miss
60.8275	2.5	stimuli/Faces/JWmale76neutral.bmp		0.7695	Hit
64.1806	2.5	stimuli/Faces/JWmale65neutral.bmp		0.9839	Miss
67.9007	2.5	stimuli/Faces/TMWmale30neutral.bmp		1.2050	Miss
71.4711	2.5	stimuli/Faces/TMWfemale40neutral.bmp		1.0399	CR
74.7386	2.5	stimuli/Faces/EMIfemale26neutral.bmp		0.9469	Miss
78.3423	2.5	stimuli/Faces/JWfemale83neutral.bmp		1.8207	Miss
81.9095	2.5	stimuli/Faces/TSFWmale87neutral.bmp		1.3008	CR
85.3810	2.5	stimuli/Faces/TMBmale44neutral.bmp		0.9552	CR
88.4664	2.5	stimuli/Faces/JWfemale71-5neutral.bmp		NaN	NoResp
92.4836	2.5	stimuli/Faces/EMWmale19neutral.bmp		1.4386	CR
96.3221	2.5	stimuli/Faces/TSFWmale54neutral.bmp		1.3123	Miss
100.0055	2.5	stimuli/Faces/EMBfemale22-4neutral.bmp		0.9090	CR
103.0590	2.5	stimuli/Faces/TSFWmale69neutral.bmp		1.6928	Miss
106.5787	2.5	stimuli/Faces/EMWmale33neutral.bmp		1.6994	Miss
110.0120	2.5	stimuli/Faces/EMImale25neutral.bmp		1.3121	CR
113.1491	2.5	stimuli/Faces/JWmale88neutral.bmp		0.8352	CR
116.8851	2.5	stimuli/Faces/JWfemale78neutral.bmp		0.8587	Miss
120.3201	2.5	stimuli/Faces/TSFBmale50neutral.bmp		1.0505	CR
123.7894	2.5	stimuli/Faces/Wmale_55.bmp		0.7904	CR
127.2919	2.5	stimuli/Faces/TMBmale39neutral.bmp		0.7323	Hit
130.3108	2.5	stimuli/Faces/JWfemale71-2neutral.bmp	NaN	0.8913	Miss
133.9975	2.5	stimuli/Faces/JWmale86neutral.bmp		1.9577	Miss
137.2822	2.5	stimuli/Faces/EMIfemale25neutral.bmp		0.8523	CR
140.3513	2.5	stimuli/Faces/TMWmale71neutral.bmp		0.8507	CR
143.4200	2.5	stimuli/Faces/EMBfemale26neutral.bmp		1.0927	CR
146.8226	2.5	stimuli/Faces/TSFAmale68neutral.bmp		1.4540	Hit
149.8583	2.5	stimuli/Faces/TMWfemale35neutral.bmp		1.0766	Miss
153.1618	2.5	stimuli/Faces/Wmale_50.bmp		1.4662	CR
157.0642	2.5	stimuli/Faces/EMBfemale20-2neutral.bmp	NaN	1.6285	Miss
160.4837	2.5	stimuli/Faces/EMWfemale25neutral.bmp		1.9350	FA
164.2517	2.5	stimuli/Faces/TMBfemale57neutral.bmp		1.8463	Miss
167.6542	2.5	stimuli/Faces/JWmale79neutral.bmp		1.0271	Miss
171.4234	2.5	stimuli/Faces/TMWmale37-2neutral.bmp		1.0636	CR
174.6592	2.5	stimuli/Faces/TSFWmale79neutral.bmp		1.0391	CR
178.2117	2.5	stimuli/Faces/TMBmale49neutral.bmp		0.9029	CR
181.3140	2.5	stimuli/Faces/JWfemale64-3neutral.bmp		1.1215	Hit
185.1344	2.5	stimuli/Faces/TSFBfemale65-2neutral.bmp		1.0733	CR
188.7526	2.5	stimuli/Faces/TMWmale37neutral.bmp		1.0615	CR
191.9554	2.5	stimuli/Faces/EMImale25-2neutral.bmp		0.8909	Hit
195.7409	2.5	stimuli/Faces/TMWmale34-3neutral.bmp		1.1189	Miss
199.7270	2.5	stimuli/Faces/TSFWmale71neutral.bmp		1.4621	CR
202.8809	2.5	stimuli/Faces/EMWfemale34neutral.bmp		0.8827	CR
206.1829	2.5	stimuli/Faces/TSFWmale57neutral.bmp		1.1177	CR
209.4019	2.5	stimuli/Faces/Wmale_65.bmp		0.9592	CR
213.3717	2.5	stimuli/Faces/EMBfemale29neutral.bmp		1.3273	Hit
217.0421	2.5	stimuli/Faces/TSFWmale71-4neutral.bmp		1.6615	FA
220.7422	2.5	stimuli/Faces/EMIfemale25-2neutral.bmp		1.1489	Miss
224.3614	2.5	stimuli/Faces/EMBfemale21-4neutral.bmp		0.9045	Hit
228.0806	2.5	stimuli/Faces/JWmale89neutral.bmp		1.0770	Hit
231.4332	2.5	stimuli/Faces/EMWfemale21-3neutral.bmp		0.9803	CR
234.7855	2.5	stimuli/Faces/TSFWfemale52-2neutral.bmp		0.9242	CR
238.7559	2.5	stimuli/Faces/EMImale23-2neutral.bmp		1.0920	FA
242.2591	2.5	stimuli/Faces/JWfemale74neutral.bmp		1.0807	Hit
246.2271	2.5	stimuli/Faces/JWfemale63-3neutral.bmp		1.2666	Hit
249.4130	2.5	stimuli/Faces/JWfemale42neutral.bmp		1.0323	Hit
252.7986	2.5	stimuli/Faces/EMBfemale49neutral.bmp		0.8631	Hit
256.3350	2.5	stimuli/Faces/TMWmale45neutral.bmp		1.2681	Miss
259.5534	2.5	stimuli/Faces/JWmale38neutral.bmp		1.4129	Miss
262.6732	2.5	stimuli/Faces/TMWmale34-4neutral.bmp		NaN	NoResp
266.4770	2.5	stimuli/Faces/JWfemale80-4neutral.bmp		1.3431	CR
269.7290	2.5	stimuli/Faces/TSFWmale88neutral.bmp		1.0643	Miss
273.3968	2.5	stimuli/Faces/EMBfemale33neutral.bmp		0.6899	Hit
276.4491	2.5	stimuli/Faces/TMWfemale31neutral.bmp		1.0431	Miss
280.3695	2.5	stimuli/Faces/TMWfemale43neutral.bmp		1.6384	Hit
284.2216	2.5	stimuli/Faces/TMBfemale30neutral.bmp		0.8478	Hit
287.8234	2.5	stimuli/Faces/EMBfemale21neutral.bmp		0.9400	FA
290.9275	2.5	stimuli/Faces/EMImale23-4neutral.bmp		1.0279	CR
294.9298	2.5	stimuli/Faces/TSFWmale46neutral.bmp		1.4143	FA
298.8649	2.5	stimuli/Faces/EMBmale20neutral.bmp		0.8715	FA
302.6692	2.5	stimuli/Faces/EMWfemale22neutral.bmp		0.9893	Miss
306.2560	2.5	stimuli/Faces/TMBfemale51neutral.bmp		1.5907	Miss
309.9071	2.5	stimuli/Faces/EMHmale22neutral.bmp		0.8587	CR
313.0759	2.5	stimuli/Faces/EMImale21-2neutral.bmp		1.5216	CR
316.7277	2.5	stimuli/Faces/JWfemale50neutral.bmp		1.3012	CR
320.0634	2.5	stimuli/Faces/JWfemale81-3neutral.bmp		1.2975	CR
323.6828	2.5	stimuli/Faces/JWfemale65-6neutral.bmp		0.9921	Miss
327.5034	2.5	stimuli/Faces/TSFBfemale63neutral.bmp		1.4549	FA
330.9546	2.5	stimuli/Faces/TMBmale18neutral.bmp		0.6822	FA
334.8250	2.5	stimuli/Faces/EMWmale40neutral.bmp		0.7658	CR
338.5766	2.5	stimuli/Faces/TSFHfemale64neutral.bmp		0.7209	CR
342.4650	2.5	stimuli/Faces/TSFBfemale70-2neutral.bmp		1.0489	Miss
345.6482	2.5	stimuli/Faces/EMBmale26neutral.bmp		0.8896	Miss
349.5182	2.5	stimuli/Faces/TSFBfemale62neutral.bmp		1.4016	CR
