onset	duration	face	response	response_time	trial_type
0.9677	2.5	stimuli/Faces/EMBfemale22-3neutral.bmp		1.3931	Hit
4.5867	2.5	stimuli/Faces/JWfemale78-3neutral.bmp		0.7292	FA
8.4896	2.5	stimuli/Faces/JWfemale77-4neutral.bmp		0.9863	Miss
12.0417	2.5	stimuli/Faces/JWfemale70-2neutral.bmp		0.8435	CR
15.4443	2.5	stimuli/Faces/TMBfemale33-2neutral.bmp		1.4390	Miss
18.4966	2.5	stimuli/Faces/TMWmale25-2neutral.bmp		0.8495	CR
21.9998	2.5	stimuli/Faces/TMWfemale34-2neutral.bmp		1.6105	CR
25.2681	2.5	stimuli/Faces/TMWmale22-3neutral.bmp		1.1376	CR
28.8057	2.5	stimuli/Faces/TMWmale71neutral.bmp		0.6461	Hit
32.4924	2.5	stimuli/Faces/TSFWmale75-3neutral.bmp		2.3707	Hit
36.0759	2.5	stimuli/Faces/TSFWmale71-4neutral.bmp		0.8860	Hit
39.5118	2.5	stimuli/Faces/TMBmale39neutral.bmp		0.6126	Hit
42.8816	2.5	stimuli/Faces/JWmale65neutral.bmp		0.8600	CR
46.2992	2.5	stimuli/Faces/TMBmale18neutral.bmp		0.9080	Hit
49.6027	2.5	stimuli/Faces/EMWfemale20-2neutral.bmp		1.3601	Miss
53.5717	2.5	stimuli/Faces/TMBmale30neutral.bmp		1.8001	CR
57.3746	2.5	stimuli/Faces/TSFWmale67-2neutral.bmp		0.8789	Miss
60.7281	2.5	stimuli/Faces/JWfemale83neutral.bmp		1.2556	Hit
63.8966	2.5	stimuli/Faces/TMWfemale40neutral.bmp		1.8259	Miss
67.1488	2.5	stimuli/Faces/EMWmale40neutral.bmp		0.9866	Hit
71.0844	2.5	stimuli/Faces/TMWmale33neutral.bmp		0.7038	Miss
74.2036	2.5	stimuli/Faces/JWmale71neutral.bmp		0.7794	Hit
77.6224	2.5	stimuli/Faces/Wmale_55-3.bmp		0.7045	Hit
81.3596	2.5	stimuli/Faces/JWfemale86-2neutral.bmp		2.0152	CR
84.6779	2.5	stimuli/Faces/EMBfemale22-4neutral.bmp		1.0569	Hit
88.5825	2.5	stimuli/Faces/TSFWmale69neutral.bmp		1.1108	Miss
92.0161	2.5	stimuli/Faces/TMBfemale40neutral.bmp		1.0556	CR
95.6686	2.5	stimuli/Faces/JWmale83-2neutral.bmp		0.6602	Hit
99.3213	2.5	stimuli/Faces/TMBmale21-3neutral.bmp		0.8723	CR
103.1741	2.5	stimuli/Faces/JWfemale78-6neutral.bmp		0.7635	Hit
106.5285	2.5	stimuli/Faces/EMWmale52neutral.bmp		0.7641	CR
110.1624	2.5	stimuli/Faces/TMWfemale49-2neutral.bmp		0.9800	FA
113.9328	2.5	stimuli/Faces/TMWfemale35neutral.bmp		0.9247	Miss
117.2170	2.5	stimuli/Faces/TMBfemale33neutral.bmp		0.7710	Hit
120.7035	2.5	stimuli/Faces/JWmale76neutral.bmp		0.8113	Hit
123.7391	2.5	stimuli/Faces/TSFHmale65neutral.bmp		0.7043	CR
127.5588	2.5	stimuli/Faces/EMWfemale30neutral.bmp		1.0369	Hit
131.3797	2.5	stimuli/Faces/TMWmale45neutral.bmp		1.0324	CR
134.4981	2.5	stimuli/Faces/TMWfemale43neutral.bmp		0.6392	Hit
137.5988	2.5	stimuli/Faces/JWmale69-2neutral.bmp		0.8046	Hit
140.8192	2.5	stimuli/Faces/TSFWmale74neutral.bmp		1.7227	FA
144.3870	2.5	stimuli/Faces/Wmale_55.bmp		0.6783	Hit
148.2566	2.5	stimuli/Faces/EMIfemale26neutral.bmp		1.0349	CR
151.3922	2.5	stimuli/Faces/EMImale24-2neutral.bmp		0.8788	CR
154.7114	2.5	stimuli/Faces/EMBfemale20-2neutral.bmp		NaN	NoResp
158.3130	2.5	stimuli/Faces/TSFWmale57neutral.bmp		0.7428	Hit
161.3655	2.5	stimuli/Faces/TMBfemale41neutral.bmp		1.2886	CR
164.9361	2.5	stimuli/Faces/EMBfemale21neutral.bmp		0.8919	CR
168.7045	2.5	stimuli/Faces/TMWmale79neutral.bmp		1.0502	Miss
172.3904	2.5	stimuli/Faces/TSFBfemale65-3neutral.bmp		1.1080	Hit
175.5928	2.5	stimuli/Faces/JWfemale82-2neutral.bmp		1.1192	Hit
178.9789	2.5	stimuli/Faces/JWfemale65-2neutral.bmp		1.1310	CR
182.0474	2.5	stimuli/Faces/JWfemale66neutral.bmp		1.4544	CR
185.8003	2.5	stimuli/Faces/EMBfemale25neutral.bmp		0.7697	Miss
188.9691	2.5	stimuli/Faces/TSFWmale37neutral.bmp		1.0453	Hit
192.3041	2.5	stimuli/Faces/JWmale66neutral.bmp		0.9722	CR
195.9409	2.5	stimuli/Faces/TMBmale44neutral.bmp		0.8031	CR
199.1435	2.5	stimuli/Faces/EMBfemale21-4neutral.bmp		1.4402	Hit
203.1301	2.5	stimuli/Faces/JWfemale74neutral.bmp		1.4075	Hit
206.7334	2.5	stimuli/Faces/TSFBfemale74-2neutral.bmp		1.0566	CR
209.8847	2.5	stimuli/Faces/TSFBfemale62neutral.bmp		0.9587	CR
213.0699	2.5	stimuli/Faces/TSFWmale46neutral.bmp		1.3578	Miss
216.5895	2.5	stimuli/Faces/TSFWmale61neutral.bmp		0.8055	CR
220.5608	2.5	stimuli/Faces/TSFWmale79-3neutral.bmp		0.8205	Hit
224.4782	2.5	stimuli/Faces/TSFWmale71neutral.bmp		1.0277	CR
228.3802	2.5	stimuli/Faces/TSFBmale77neutral.bmp		0.9409	CR
232.1332	2.5	stimuli/Faces/EMImale25neutral.bmp		0.7910	CR
235.3687	2.5	stimuli/Faces/JWmale83neutral.bmp		1.0993	CR
239.2240	2.5	stimuli/Faces/JWmale38neutral.bmp		0.8655	CR
242.6919	2.5	stimuli/Faces/EMImale23-6neutral.bmp		0.7795	CR
245.9451	2.5	stimuli/Faces/TMBfemale51neutral.bmp		0.9371	CR
249.9628	2.5	stimuli/Faces/TSFBfemale61neutral.bmp		0.6486	Hit
253.4817	2.5	stimuli/Faces/JWfemale79neutral.bmp		1.0044	CR
256.8846	2.5	stimuli/Faces/TSFHfemale64neutral.bmp		1.1639	CR
260.7373	2.5	stimuli/Faces/TMWmale34neutral.bmp		0.7262	Hit
264.4066	2.5	stimuli/Faces/TSFBfemale70-2neutral.bmp		0.6076	CR
267.7257	2.5	stimuli/Faces/JWfemale65-6neutral.bmp		1.0693	CR
271.2783	2.5	stimuli/Faces/EMImale25-2neutral.bmp		0.7110	Hit
274.4305	2.5	stimuli/Faces/EMWmale19neutral.bmp		0.9949	Hit
278.2838	2.5	stimuli/Faces/JWfemale78neutral.bmp		0.7813	CR
282.0531	2.5	stimuli/Faces/JWfemale50neutral.bmp		0.6929	CR
285.7721	2.5	stimuli/Faces/TSFBfemale67neutral.bmp		1.1487	CR
289.7762	2.5	stimuli/Faces/TMHmale18neutral.bmp		0.7982	FA
293.2274	2.5	stimuli/Faces/EMBfemale29neutral.bmp		1.2238	CR
296.3121	2.5	stimuli/Faces/EMImale24-4neutral.bmp		0.8575	CR
300.2657	2.5	stimuli/Faces/JWfemale67-4neutral.bmp		1.2640	Miss
303.5515	2.5	stimuli/Faces/JWfemale71-2neutral.bmp		0.9787	Hit
307.2210	2.5	stimuli/Faces/TSFBfemale50neutral.bmp		0.9555	CR
311.0909	2.5	stimuli/Faces/TMWmale37-2neutral.bmp		0.8335	CR
314.5939	2.5	stimuli/Faces/TSFBfemale54neutral.bmp		0.8477	CR
318.5474	2.5	stimuli/Faces/JWfemale60neutral.bmp		0.8497	CR
322.2646	2.5	stimuli/Faces/JWfemale37neutral.bmp		0.8839	Hit
325.2837	2.5	stimuli/Faces/TSFBmale50neutral.bmp		1.0171	Miss
329.2877	2.5	stimuli/Faces/TSFWmale68-2neutral.bmp		0.6996	CR
332.9892	2.5	stimuli/Faces/JWmale79neutral.bmp		0.8951	Hit
336.2080	2.5	stimuli/Faces/EMWfemale21-3neutral.bmp		0.8398	Hit
340.0109	2.5	stimuli/Faces/TSFBfemale78-2neutral.bmp		0.8666	FA
343.2816	2.5	stimuli/Faces/JWfemale68-2neutral.bmp		0.8518	CR
346.3819	2.5	stimuli/Faces/TMBfemale37neutral.bmp		0.6857	Hit
349.4345	2.5	stimuli/Faces/TSFBfemale63-2neutral.bmp		0.8178	Hit
