onset	duration	face	response	response_time	trial_type
0.8175	2.5	stimuli/Faces/JWfemale39neutral.bmp		1.3931	Hit
4.6533	2.5	stimuli/Faces/JWfemale69-2neutral.bmp		0.7292	FA
8.1562	2.5	stimuli/Faces/TMWmale32neutral.bmp		0.9863	Miss
11.7586	2.5	stimuli/Faces/TMWmale30neutral.bmp		0.8435	CR
15.0944	2.5	stimuli/Faces/EMWfemale22-3neutral.bmp		1.4390	Miss
19.0639	2.5	stimuli/Faces/EMWfemale34neutral.bmp		0.8495	CR
22.9847	2.5	stimuli/Faces/EMWmale19-3neutral.bmp		1.6105	CR
26.5359	2.5	stimuli/Faces/TSFAmale68neutral.bmp		1.1376	CR
29.6214	2.5	stimuli/Faces/TSFWmale66-2neutral.bmp		0.6461	Hit
33.1418	2.5	stimuli/Faces/JWfemale77neutral.bmp		2.3707	Hit
36.4096	2.5	stimuli/Faces/TMBmale41neutral.bmp		0.8860	Hit
39.9121	2.5	stimuli/Faces/EMBfemale22neutral.bmp		0.6126	Hit
43.5155	2.5	stimuli/Faces/JWmale81-2neutral.bmp		0.8600	CR
46.7338	2.5	stimuli/Faces/TSFWmale87neutral.bmp		0.9080	Hit
49.8693	2.5	stimuli/Faces/TMWfemale37neutral.bmp		1.3601	Miss
53.4887	2.5	stimuli/Faces/JWfemale65-4neutral.bmp		1.8001	CR
56.8077	2.5	stimuli/Faces/TSFWmale42neutral.bmp		0.8789	Miss
60.0598	2.5	stimuli/Faces/EMWfemale25neutral.bmp		1.2556	Hit
63.4467	2.5	stimuli/Faces/TMWmale34-4neutral.bmp		1.8259	Miss
66.7816	2.5	stimuli/Faces/TMBfemale30neutral.bmp		0.9866	Hit
70.0006	2.5	stimuli/Faces/TSFWmale63neutral.bmp		0.7038	Miss
73.2370	2.5	stimuli/Faces/EMImale21-2neutral.bmp		0.7794	Hit
76.4053	2.5	stimuli/Faces/JWfemale71-5neutral.bmp		0.7045	Hit
80.2913	2.5	stimuli/Faces/EMBfemale26neutral.bmp		2.0152	CR
83.4934	2.5	stimuli/Faces/TMWmale19neutral.bmp		1.0569	Hit
86.5287	2.5	stimuli/Faces/EMBmale55neutral.bmp		1.1108	Miss
90.5321	2.5	stimuli/Faces/JWfemale76-3neutral.bmp		1.0556	CR
93.6674	2.5	stimuli/Faces/TMWfemale31neutral.bmp		0.6602	Hit
97.4212	2.5	stimuli/Faces/TMWmale41neutral.bmp		0.8723	CR
100.4390	2.5	stimuli/Faces/EMWfemale24-2neutral.bmp		0.7635	Hit
104.1103	2.5	stimuli/Faces/EMWmale20neutral.bmp		0.7641	CR
107.9615	2.5	stimuli/Faces/EMImale23-2neutral.bmp		0.9800	FA
111.3148	2.5	stimuli/Faces/EMWmale21-3neutral.bmp		0.9247	Miss
114.7326	2.5	stimuli/Faces/TSFBfemale65-2neutral.bmp		0.7710	Hit
117.7849	2.5	stimuli/Faces/TSFWmale79neutral.bmp		0.8113	Hit
121.5710	2.5	stimuli/Faces/TSFWmale54neutral.bmp		0.7043	CR
124.6896	2.5	stimuli/Faces/Wmale_50.bmp		1.0369	Hit
128.4422	2.5	stimuli/Faces/JWfemale77-2neutral.bmp		1.0324	CR
131.5952	2.5	stimuli/Faces/EMIfemale19neutral.bmp		0.6392	Hit
135.0494	2.5	stimuli/Faces/TMWfemale36neutral.bmp		0.8046	Hit
138.6157	2.5	stimuli/Faces/TSFWmale70neutral.bmp		1.7227	FA
141.8022	2.5	stimuli/Faces/JWmale86neutral.bmp		0.6783	Hit
145.5236	2.5	stimuli/Faces/EMBfemale49neutral.bmp		1.0349	CR
149.5407	2.5	stimuli/Faces/TMBmale24neutral.bmp		0.8788	CR
152.9939	2.5	stimuli/Faces/TMBmale21neutral.bmp	NaN	NaN	NoResp
156.0626	2.5	stimuli/Faces/TSFWmale77neutral.bmp		0.7428	Hit
159.7667	2.5	stimuli/Faces/TMWmale37neutral.bmp		1.2886	CR
163.5366	2.5	stimuli/Faces/JWmale64neutral.bmp		0.8919	CR
166.8372	2.5	stimuli/Faces/TSFWfemale34neutral.bmp		1.0502	Miss
169.9055	2.5	stimuli/Faces/EMBfemale33neutral.bmp		1.1080	Hit
173.1580	2.5	stimuli/Faces/EMIfemale25-2neutral.bmp		1.1192	Hit
176.8274	2.5	stimuli/Faces/EMBfemale21-3neutral.bmp		1.1310	CR
180.7300	2.5	stimuli/Faces/EMWfemale22neutral.bmp		1.4544	CR
183.8324	2.5	stimuli/Faces/EMBfemale20neutral.bmp		0.7697	Miss
187.2681	2.5	stimuli/Faces/JWmale88neutral.bmp		1.0453	Hit
190.9722	2.5	stimuli/Faces/TMBmale28neutral.bmp		0.9722	CR
194.7903	2.5	stimuli/Faces/WBmale31neutral.bmp		0.8031	CR
197.9592	2.5	stimuli/Faces/EMBfemale21-2neutral.bmp		1.4402	Hit
201.4298	2.5	stimuli/Faces/EMImale23-4neutral.bmp		1.4075	Hit
205.2668	2.5	stimuli/Faces/Wmale_55-2.bmp		1.0566	CR
209.2506	2.5	stimuli/Faces/EMWmale32neutral.bmp		0.9587	CR
212.5026	2.5	stimuli/Faces/JWmale80neutral.bmp		1.3578	Miss
216.4390	2.5	stimuli/Faces/Wmale_65.bmp		0.8055	CR
219.7248	2.5	stimuli/Faces/WBfemale47neutral.bmp		0.8205	Hit
223.3466	2.5	stimuli/Faces/JWfemale42neutral.bmp		1.0277	CR
227.0304	2.5	stimuli/Faces/JWfemale44neutral.bmp		0.9409	CR
230.6182	2.5	stimuli/Faces/TMWmale34-2neutral.bmp		0.7910	CR
234.5861	2.5	stimuli/Faces/JWfemale48neutral.bmp		1.0993	CR
238.2209	2.5	stimuli/Faces/TMBmale49neutral.bmp		0.8655	CR
241.8739	2.5	stimuli/Faces/EMWmale33neutral.bmp		0.7795	CR
245.7934	2.5	stimuli/Faces/JWmale70neutral.bmp		0.9371	CR
248.9137	2.5	stimuli/Faces/EMBfemale22-2neutral.bmp		0.6486	Hit
252.7151	2.5	stimuli/Faces/TMWmale34-3neutral.bmp		1.0044	CR
256.2355	2.5	stimuli/Faces/EMWfemale21-5neutral.bmp		1.1639	CR
259.3373	2.5	stimuli/Faces/JWfemale76-4neutral.bmp		0.7262	Hit
263.2896	2.5	stimuli/Faces/JBmale68neutral.bmp		0.6076	CR
266.9430	2.5	stimuli/Faces/EMIfemale25neutral.bmp		1.0693	CR
270.3445	2.5	stimuli/Faces/TSFBfemale65neutral.bmp		0.7110	Hit
273.7134	2.5	stimuli/Faces/JWfemale72-2neutral.bmp		0.9949	Hit
277.7163	2.5	stimuli/Faces/JWfemale74-2neutral.bmp		0.7813	CR
281.5366	2.5	stimuli/Faces/JWfemale70-4neutral.bmp		0.6929	CR
285.2718	2.5	stimuli/Faces/JWfemale63-3neutral.bmp		1.1487	CR
288.8411	2.5	stimuli/Faces/JWfemale79-4neutral.bmp		0.7982	FA
292.6264	2.5	stimuli/Faces/TMBfemale57neutral.bmp		1.2238	CR
296.1808	2.5	stimuli/Faces/JWmale73neutral.bmp		0.8575	CR
299.4994	2.5	stimuli/Faces/JWfemale73-2neutral.bmp		1.2640	Miss
302.8678	2.5	stimuli/Faces/EMHmale22neutral.bmp		0.9787	Hit
306.7211	2.5	stimuli/Faces/EMBmale26neutral.bmp		0.9555	CR
310.4398	2.5	stimuli/Faces/TSFWfemale52-2neutral.bmp		0.8335	CR
314.1927	2.5	stimuli/Faces/EMWfemale18-2neutral.bmp		0.8477	CR
318.0617	2.5	stimuli/Faces/JWmale67neutral.bmp		0.8497	CR
321.4815	2.5	stimuli/Faces/TMWmale20-4neutral.bmp		0.8839	Hit
324.9670	2.5	stimuli/Faces/JWfemale81-3neutral.bmp		1.0171	Miss
328.9196	2.5	stimuli/Faces/TMWmale43neutral.bmp		0.6996	CR
332.3222	2.5	stimuli/Faces/JWfemale64-3neutral.bmp		0.8951	Hit
335.7914	2.5	stimuli/Faces/TSFWmale88neutral.bmp		0.8398	Hit
339.3118	2.5	stimuli/Faces/JWfemale80-4neutral.bmp		0.8666	FA
343.2134	2.5	stimuli/Faces/EMBmale20neutral.bmp		0.8518	CR
346.4157	2.5	stimuli/Faces/TSFBfemale63neutral.bmp		0.6857	Hit
349.4696	2.5	stimuli/Faces/JWmale89neutral.bmp		0.8178	Hit
