onset	duration	face	response	response_time	trial_type
0.6503	2.5	stimuli/Faces/JWfemale68-2neutral.bmp		1.3920	FA
4.0362	2.5	stimuli/Faces/JWmale76neutral.bmp		0.8729	Hit
7.4386	2.5	stimuli/Faces/TSFWmale37neutral.bmp		0.7557	Hit
11.2761	2.5	stimuli/Faces/TMBmale28neutral.bmp		0.8746	CR
14.9117	2.5	stimuli/Faces/TSFBmale50neutral.bmp		0.8277	Hit
18.3465	2.5	stimuli/Faces/JWmale69-2neutral.bmp		0.8598	Hit
22.3495	2.5	stimuli/Faces/TMWfemale37neutral.bmp		0.5659	Hit
25.9701	2.5	stimuli/Faces/TSFWmale71neutral.bmp		0.8273	CR
29.7731	2.5	stimuli/Faces/JWmale89neutral.bmp		1.7378	Miss
32.8568	2.5	stimuli/Faces/EMWfemale30neutral.bmp		0.7067	Hit
36.1756	2.5	stimuli/Faces/EMWmale33neutral.bmp		1.2997	Hit
40.0954	2.5	stimuli/Faces/EMBfemale21-2neutral.bmp		0.9059	Hit
43.3979	2.5	stimuli/Faces/EMBfemale21neutral.bmp		0.9886	Hit
46.8332	2.5	stimuli/Faces/JWfemale82-2neutral.bmp		0.7632	CR
50.2527	2.5	stimuli/Faces/Wmale_55-2.bmp		1.3840	CR
54.2060	2.5	stimuli/Faces/EMImale23-6neutral.bmp		0.9463	CR
57.8583	2.5	stimuli/Faces/EMBfemale21-4neutral.bmp		1.4821	CR
61.7963	2.5	stimuli/Faces/TMBmale24neutral.bmp		0.7604	CR
65.3480	2.5	stimuli/Faces/TMWmale25-2neutral.bmp		0.7563	Hit
69.1664	2.5	stimuli/Faces/JBmale68neutral.bmp		0.9004	CR
72.8357	2.5	stimuli/Faces/TMBmale21-3neutral.bmp		1.3245	CR
76.8555	2.5	stimuli/Faces/JWmale64neutral.bmp		2.0337	Miss
80.7603	2.5	stimuli/Faces/TSFBfemale74-2neutral.bmp		1.0450	CR
83.8768	2.5	stimuli/Faces/EMWfemale21-3neutral.bmp		0.8096	Hit
86.9130	2.5	stimuli/Faces/TSFWmale77neutral.bmp		1.0494	CR
90.5988	2.5	stimuli/Faces/EMBfemale22neutral.bmp		1.1652	Hit
94.1683	2.5	stimuli/Faces/JWfemale65-6neutral.bmp		0.7291	CR
97.7370	2.5	stimuli/Faces/JWfemale77neutral.bmp		1.0151	CR
101.5063	2.5	stimuli/Faces/EMImale23-2neutral.bmp		0.9498	Hit
105.3768	2.5	stimuli/Faces/JWmale71neutral.bmp		0.7838	Hit
109.3467	2.5	stimuli/Faces/EMWfemale22-3neutral.bmp		0.7704	CR
112.3973	2.5	stimuli/Faces/WBfemale47neutral.bmp	NaN	0.6195	Hit
116.1835	2.5	stimuli/Faces/TSFWmale69neutral.bmp		0.6879	CR
119.6025	2.5	stimuli/Faces/EMWmale52neutral.bmp		0.7634	Hit
123.1896	2.5	stimuli/Faces/TSFBfemale65neutral.bmp		0.7254	Miss
126.8754	2.5	stimuli/Faces/TSFBmale77neutral.bmp		0.8145	Hit
130.2454	2.5	stimuli/Faces/JWfemale83neutral.bmp		1.1333	Hit
133.5792	2.5	stimuli/Faces/TSFWmale79-3neutral.bmp		0.9320	CR
137.3502	2.5	stimuli/Faces/JWfemale79-4neutral.bmp		0.6961	Hit
140.5533	2.5	stimuli/Faces/TMBfemale41neutral.bmp		1.0528	CR
143.8030	2.5	stimuli/Faces/TMBmale39neutral.bmp		0.9477	Hit
147.3240	2.5	stimuli/Faces/EMWmale40neutral.bmp		1.0158	CR
150.7918	2.5	stimuli/Faces/TSFWfemale52-2neutral.bmp		1.9763	Hit
154.3946	2.5	stimuli/Faces/JWmale67neutral.bmp		1.0891	CR
157.5464	2.5	stimuli/Faces/EMBfemale25neutral.bmp		1.4261	CR
160.6483	2.5	stimuli/Faces/JWfemale64-3neutral.bmp		1.0728	CR
164.4525	2.5	stimuli/Faces/JWfemale66neutral.bmp		0.9610	CR
167.9537	2.5	stimuli/Faces/TMWmale79neutral.bmp		0.6895	Hit
171.4561	2.5	stimuli/Faces/JWmale86neutral.bmp		1.0972	CR
174.5585	2.5	stimuli/Faces/EMIfemale25neutral.bmp		1.4659	Hit
178.4615	2.5	stimuli/Faces/EMIfemale25-2neutral.bmp		0.8110	FA
181.6804	2.5	stimuli/Faces/TMWmale32neutral.bmp		0.9805	CR
184.9495	2.5	stimuli/Faces/TSFWmale42neutral.bmp		1.0903	CR
188.7048	2.5	stimuli/Faces/JWmale38neutral.bmp		0.7433	Hit
192.4548	2.5	stimuli/Faces/JWmale66neutral.bmp		1.0772	Miss
196.3409	2.5	stimuli/Faces/EMWfemale25neutral.bmp		1.2354	CR
199.5266	2.5	stimuli/Faces/TMWmale34-4neutral.bmp		0.6857	Hit
203.3804	2.5	stimuli/Faces/EMWmale19-3neutral.bmp	NaN	1.8012	Miss
207.2326	2.5	stimuli/Faces/TSFBfemale63neutral.bmp		0.7379	Hit
210.8850	2.5	stimuli/Faces/JWfemale42neutral.bmp		0.7559	Hit
214.8396	2.5	stimuli/Faces/JWfemale65-2neutral.bmp		0.9011	CR
217.9564	2.5	stimuli/Faces/TMWmale34-2neutral.bmp		0.7597	Hit
221.8594	2.5	stimuli/Faces/EMWmale20neutral.bmp		0.6818	Hit
225.5790	2.5	stimuli/Faces/TMBfemale57neutral.bmp		0.7643	CR
228.6475	2.5	stimuli/Faces/JWfemale79neutral.bmp		1.4319	CR
231.8998	2.5	stimuli/Faces/EMImale25-2neutral.bmp		0.6396	Hit
235.5201	2.5	stimuli/Faces/EMBmale55neutral.bmp		0.5664	Hit
238.9217	2.5	stimuli/Faces/JWmale81-2neutral.bmp		0.8337	CR
242.1238	2.5	stimuli/Faces/JWfemale74neutral.bmp		0.7739	Hit
245.4262	2.5	stimuli/Faces/EMWfemale20-2neutral.bmp		1.4706	Hit
248.7453	2.5	stimuli/Faces/TSFWmale67-2neutral.bmp		0.8901	CR
252.4826	2.5	stimuli/Faces/TSFWmale61neutral.bmp		0.6447	Hit
256.0339	2.5	stimuli/Faces/TMWfemale43neutral.bmp		0.7533	Miss
260.0059	2.5	stimuli/Faces/EMBfemale20neutral.bmp		0.8791	CR
263.3057	2.5	stimuli/Faces/EMWfemale22neutral.bmp		0.9530	Hit
267.2763	2.5	stimuli/Faces/EMBfemale20-2neutral.bmp		0.9514	CR
270.3275	2.5	stimuli/Faces/TMBmale30neutral.bmp		0.9325	CR
274.1969	2.5	stimuli/Faces/JWfemale71-2neutral.bmp		1.0463	CR
278.1831	2.5	stimuli/Faces/TSFWmale68-2neutral.bmp		1.0613	Hit
281.7023	2.5	stimuli/Faces/JWmale70neutral.bmp		0.7810	Hit
285.3716	2.5	stimuli/Faces/EMImale23-4neutral.bmp		0.7758	Hit
289.0931	2.5	stimuli/Faces/JWfemale63-3neutral.bmp		1.0381	CR
292.2596	2.5	stimuli/Faces/EMImale25neutral.bmp		1.0656	CR
295.6117	2.5	stimuli/Faces/TSFWmale75-3neutral.bmp		1.4043	CR
299.0678	2.5	stimuli/Faces/JWfemale81-3neutral.bmp		1.5855	Hit
302.6010	2.5	stimuli/Faces/TSFWfemale34neutral.bmp		1.0179	CR
306.0531	2.5	stimuli/Faces/JWfemale80-4neutral.bmp		1.8074	Hit
309.1888	2.5	stimuli/Faces/TSFWmale79neutral.bmp		0.6885	FA
312.2576	2.5	stimuli/Faces/TMWmale22-3neutral.bmp		0.9527	Hit
315.4766	2.5	stimuli/Faces/JWfemale78neutral.bmp		0.9562	CR
318.7455	2.5	stimuli/Faces/EMBfemale22-2neutral.bmp		0.6430	Hit
322.0988	2.5	stimuli/Faces/TSFBfemale67neutral.bmp		0.6775	CR
325.2665	2.5	stimuli/Faces/EMIfemale19neutral.bmp		0.8173	CR
328.6194	2.5	stimuli/Faces/EMBfemale21-3neutral.bmp		0.7265	Hit
331.6216	2.5	stimuli/Faces/TSFBfemale62neutral.bmp		1.3259	CR
335.4425	2.5	stimuli/Faces/JWfemale86-2neutral.bmp		0.9901	CR
338.6432	2.5	stimuli/Faces/TSFBfemale61neutral.bmp		0.9745	CR
342.1123	2.5	stimuli/Faces/TMWmale33neutral.bmp		0.7748	Hit
345.7154	2.5	stimuli/Faces/EMBmale26neutral.bmp		0.8624	CR
349.4200	2.5	stimuli/Faces/TMWfemale36neutral.bmp		0.8799	FA
